@ HyperIMU -ianovir - 2018
@ Date:Tue Mar 20 13:16:35 PDT 2018, Sampling Time:20ms

BMI160_accelerometer.x,BMI160_accelerometer.y,BMI160_accelerometer.z,BMI160_gyroscope.x,BMI160_gyroscope.y,BMI160_gyroscope.z,AK09915_magnetometer.x,AK09915_magnetometer.y,AK09915_magnetometer.z
0.12933107,0.45984375,9.867481,0.0,0.0,0.0,0.0,0.0,0.0
0.12933107,0.45984375,9.867481,0.0,0.0,0.0,0.0,0.0,0.0
0.18681154,0.4263135,9.7812605,0.0,0.0,0.0,0.0,0.0,0.0
0.14849122,0.47900394,9.72857,0.008259631,-0.0011143342,-0.0016393103,0.0,0.0,0.0
0.09101075,0.5029541,9.843531,0.003998573,-0.0037774954,-4.1413645E-5,0.0,0.0,0.0
0.1101709,0.48379397,9.800421,0.0018680438,-0.0016469664,0.006350173,33.600002,20.25,-42.15
0.17244141,0.43110353,9.75731,0.0018680438,-4.9069757E-5,0.007415437,32.4,20.1,-40.350002
0.12933107,0.43110353,9.7142,0.0034659405,0.0010161947,0.003687012,32.25,20.85,-40.95
0.12454102,0.488584,9.81,0.0066617336,0.0026140914,0.006350173,31.800001,21.75,-41.850002
0.100590825,0.46463382,9.77168,0.0018680438,-5.81702E-4,0.0031543798,31.95,20.550001,-40.95
0.10538086,0.4742139,9.829161,-0.0045235427,-0.0021795987,4.912186E-4,31.650002,20.85,-42.15
0.06706055,0.44547364,9.73815,-0.008784601,0.00474462,0.003687012,31.95,20.85,-41.7
0.1101709,0.50774413,9.74773,0.0050638374,0.0026140914,0.0031543798,30.900002,21.6,-43.350002
0.17244141,0.5029541,9.77168,0.003998573,-0.0059080245,0.0010238509,32.7,20.400002,-41.850002
0.11496094,0.4981641,9.82437,-0.003990911,-0.0016469664,0.0015564831,33.300003,21.6,-43.65
0.18681154,0.48379397,9.7621,0.0045312047,0.0015488269,0.0047522765,33.45,19.650002,-42.75
0.100590825,0.45505372,9.814791,0.0045312047,0.0036793558,-0.0016393103,33.75,20.400002,-42.75
0.18681154,0.4263135,9.77647,0.007726998,0.0010161947,0.0015564831,32.4,20.7,-42.75
0.20597169,0.46942386,9.7812605,-0.0066540726,-0.00484276,0.009013334,32.7,19.35,-42.300003
0.07185059,0.45984375,9.83874,-0.0013277496,-0.0021795987,0.0031543798,32.7,20.1,-41.550003
0.09101075,0.46463382,9.79563,0.0071943663,-5.81702E-4,0.0042196442,32.100002,19.050001,-41.550003
0.14849122,0.48379397,9.81,0.0018680438,0.0031467236,0.006350173,33.9,20.85,-41.25
0.19160157,0.46463382,9.80521,-0.0029256463,0.0036793558,0.006350173,32.25,19.2,-40.050003
0.12454102,0.4981641,9.77168,8.0277934E-4,-0.00484276,0.0015564831,31.650002,20.85,-40.95
0.1341211,0.45505372,9.74294,-0.0018603818,-0.0011143342,-0.0016393103,34.800003,20.400002,-41.850002
0.1820215,0.3879932,9.82437,0.0018680438,0.0031467236,0.0026217476,33.15,21.45,-42.75
0.09580079,0.488584,9.79084,-0.0018724198,-0.0053884936,0.0047542606,32.550003,19.800001,-41.7
0.09580079,0.52690434,9.83874,-0.009861903,-0.0016600674,0.0010258352,32.25,20.25,-40.95
0.16286133,0.46463382,9.80521,0.0029212702,-0.0021926996,4.9320294E-4,32.25,19.5,-42.15
0.1341211,0.45505372,9.81958,-0.0013397876,0.0010030938,0.0020910995,32.7,21.45,-41.550003
0.119750984,0.5221143,9.77168,-0.0061334777,0.0026009905,0.0010258352,32.550003,21.150002,-40.95
0.14370118,0.5125342,9.79084,-8.071554E-4,0.004731519,-0.005898384,32.100002,20.400002,-41.850002
0.100590825,0.4742139,9.80521,0.0018560058,-0.0016600674,0.0026237317,33.15,20.1,-41.850002
0.14370118,0.46463382,9.77168,0.0013233735,-0.0027253318,0.0010258352,33.0,21.150002,-42.45
0.086220704,0.4742139,9.79563,0.0013233735,-0.0043232283,0.005286893,33.9,19.800001,-42.45
0.19639161,0.45984375,9.83874,-0.005068213,-0.0021926996,-0.0011046937,31.35,20.7,-43.5
0.09101075,0.45026368,9.74773,0.004519167,0.0041988874,-0.0032352228,33.300003,19.5,-41.7
0.14849122,0.41194338,9.7621,0.005051799,0.0026009905,-0.011224706,31.95,22.2,-41.25
0.15328126,0.5364844,9.82437,-0.0013397876,0.0026009905,-0.0021699583,33.75,21.45,-42.300003
0.13891114,0.488584,9.814791,0.0018560058,0.0073946808,-0.0027025905,31.050001,19.650002,-41.100002
0.14370118,0.488584,9.83874,0.0029212702,0.0010030938,0.0026237317,34.050003,20.400002,-41.850002
0.1580713,0.47900394,9.80521,-8.071554E-4,4.7046156E-4,-0.0027025905,32.550003,19.2,-40.95
0.18681154,0.4981641,9.73815,-0.0029376843,0.001535726,-0.0032352228,33.300003,20.25,-42.9
0.14370118,0.4981641,9.877061,0.005051799,-5.948029E-4,-5.720615E-4,32.25,20.25,-41.7
0.19639161,0.45505372,9.82437,-0.0029376843,-0.0016600674,4.9320294E-4,33.45,20.1,-41.850002
0.17723145,0.43110353,9.77168,0.004519167,0.004731519,-3.9429287E-5,32.100002,20.400002,-39.45
0.1820215,0.45505372,9.73815,0.006649696,-0.0011274351,-0.0053657517,31.650002,20.85,-40.5
0.16286133,0.53169435,9.79563,0.0013233735,0.0026009905,0.0015584674,32.4,19.650002,-40.65
0.17244141,0.49337405,9.800421,-0.0013397876,-0.003257964,0.003156364,32.4,20.1,-43.050003
0.12933107,0.3879932,9.81958,0.002388638,0.0031336227,4.9320294E-4,32.7,21.75,-41.100002
0.10538086,0.43589357,9.72857,0.0029353146,0.0036815393,-0.0011070089,32.100002,20.400002,-42.300003
0.11496094,0.43589357,9.77647,0.0018700501,-0.0011121507,0.00102352,33.300003,20.85,-42.45
0.1820215,0.48379397,9.833951,0.0045332112,-0.0027100474,0.010078268,32.7,21.0,-42.300003
0.1580713,0.51732427,9.82437,-0.0013257433,-0.0027100474,4.9088785E-4,32.7,20.1,-43.050003
0.11496094,0.49337405,9.833951,-0.0013257433,-0.001644783,0.003154049,32.100002,21.45,-41.850002
0.14370118,0.45984375,9.75731,0.0013374179,4.8574596E-4,0.0036866812,32.4,20.7,-41.850002
0.12933107,0.45026368,9.766891,-0.0023910077,0.0058120685,0.0015561522,34.5,20.1,-41.550003
0.20118165,0.5460645,9.718989,-0.0023910077,0.0010183782,4.9088785E-4,32.4,20.1,-40.65
0.16765137,0.47900394,9.73815,-0.0018583755,0.0010183782,-4.174438E-5,34.350002,21.6,-40.95
0.12454102,0.43110353,9.77168,8.0478564E-4,0.0010183782,-4.174438E-5,33.75,19.35,-41.850002
0.12454102,0.4406836,9.857901,2.721534E-4,-4.688627E-5,0.0068824748,33.75,20.7,-42.300003
0.14370118,0.47900394,9.78605,-0.0077173295,-0.0021774152,4.9088785E-4,33.0,20.550001,-40.5
0.14849122,0.42152345,9.843531,0.0013374179,0.0026162749,-5.743766E-4,33.15,20.400002,-41.100002
0.16286133,0.5412744,9.78605,-0.0018583755,4.8574596E-4,-5.743766E-4,32.4,20.7,-43.800003
0.09101075,0.43589357,9.733359,0.0013374179,-0.0011121507,-0.00377017,32.7,20.400002,-42.300003
0.14370118,0.46463382,9.7621,0.0045332112,-5.795185E-4,-0.0053680665,32.7,21.0,-41.850002
0.09580079,0.44547364,9.78605,0.0034679468,0.0036815393,0.0036866812,33.300003,20.25,-40.5
0.16286133,0.50774413,9.85311,-0.0045215366,-5.795185E-4,-5.743766E-4,31.800001,20.7,-42.300003
0.17723145,0.46463382,9.75731,2.721534E-4,0.0020836426,0.0058172103,31.35,20.400002,-43.800003
0.17244141,0.46463382,9.77168,-2.6047882E-4,-0.001644783,0.0015561522,33.300003,20.25,-42.9
0.17723145,0.46942386,9.7812605,0.0018700501,0.0026162749,0.0063498425,31.2,20.550001,-42.9
0.09101075,0.45505372,9.74773,-2.6047882E-4,-0.0043079434,0.004751946,34.5,21.0,-42.300003
0.10538086,0.52690434,9.78605,-0.0018583755,-0.001644783,0.0068824748,33.45,21.0,-40.65
0.17244141,0.4742139,9.7812605,0.0050658435,-0.0037753119,-0.0032375378,33.600002,20.25,-40.95
0.081430666,0.42152345,9.766891,-0.0013023361,-0.0016193087,-0.004306661,32.4,20.7,-41.550003
0.22992188,0.46942386,9.77168,-0.0071612904,-0.0026845732,-0.0032413963,32.7,21.45,-41.850002
0.16286133,0.46942386,9.78605,-0.0050307615,-0.0032172054,4.8702932E-4,34.65,19.800001,-41.25
0.14849122,0.5029541,9.7621,-0.0071612904,-0.002151941,-0.0021761318,34.350002,19.2,-42.9
0.1580713,0.44547364,9.766891,-0.006096026,5.112202E-4,-0.0053719254,33.600002,20.25,-42.15
0.086220704,0.41194338,9.901011,0.0024260895,0.0015764846,0.0026175582,33.45,21.0,-41.100002
0.16286133,0.5508545,9.7621,2.9556057E-4,0.002641749,0.0031501905,32.4,21.0,-41.550003
0.16286133,0.50774413,9.81958,-0.0018349683,-0.005347735,-0.0032413963,32.4,22.050001,-41.100002
0.11496094,0.44547364,9.77168,-7.697039E-4,5.112202E-4,0.0031501905,33.0,21.150002,-41.25
0.13891114,0.45026368,9.72378,0.006154515,0.0010438524,-0.0016434996,32.550003,19.800001,-42.9
0.14370118,0.43589357,9.83874,2.9556057E-4,-0.009608792,-0.0048392927,32.25,20.85,-40.95
0.14370118,0.46463382,9.77647,0.0029587217,-0.008010896,0.0015522938,33.0,19.5,-40.050003
0.13891114,0.488584,9.800421,0.004023986,0.0010438524,0.002084926,33.0,21.6,-41.25
0.23950197,0.5508545,9.718989,-7.697039E-4,-0.0010866765,4.8702932E-4,32.7,20.7,-39.45
0.10538086,0.4023633,9.78605,-0.0050307615,0.004239646,-4.560291E-5,32.25,20.85,-42.15
0.1341211,0.46463382,9.77168,0.0045566186,-2.1412037E-5,-0.002708764,31.95,19.800001,-42.45
0.21555176,0.5604346,9.80521,0.005621883,-5.5404427E-4,0.0026175582,31.35,20.1,-41.550003
0.1341211,0.49337405,9.72857,8.281928E-4,0.0010438524,0.0015522938,33.45,20.400002,-41.100002
0.14849122,0.4406836,9.74773,0.0045566186,0.0010438524,-0.0032413963,33.9,18.900002,-39.300003
0.16286133,0.52690434,9.81,0.0029587217,-0.002151941,0.002084926,33.9,20.550001,-41.25
0.09580079,0.49337405,9.77168,0.001360825,-0.0064129983,4.8702932E-4,32.4,20.400002,-41.100002
0.05748047,0.44547364,9.74773,0.013078734,-0.0010866765,0.01007441,32.100002,19.050001,-40.65
0.16765137,0.4981641,9.814791,-0.0018349683,0.0010438524,-0.002708764,33.75,19.650002,-42.300003
0.1341211,0.45984375,9.82437,0.0013742007,-6.8554655E-6,0.0036806178,33.0,20.550001,-41.7
0.12933107,0.4167334,9.857901,0.0040373616,0.0063847313,-5.8044E-4,33.15,20.7,-43.5
0.13891114,0.4981641,9.7812605,0.008298419,0.0037215701,0.006343779,33.300003,19.800001,-41.25
0.12933107,0.44547364,9.833951,8.4156846E-4,5.2577676E-4,-0.009102556,33.45,20.400002,-40.65
0.17244141,0.5221143,9.85311,-0.0018215927,5.2577676E-4,-0.0016457045,32.100002,21.75,-40.65
0.086220704,0.49337405,9.77168,0.0035047296,0.003188938,0.0015500889,32.550003,21.6,-41.25
0.17244141,0.47900394,9.7621,-0.0018215927,-0.0048005455,4.8482447E-4,33.300003,20.25,-40.95
0.086220704,0.51732427,9.74773,-0.0018215927,-0.004267913,0.002082721,34.050003,20.400002,-41.550003
0.07664063,0.47900394,9.766891,0.0040373616,0.0047868346,-4.7807756E-5,31.95,20.85,-42.15
0.1101709,0.4981641,9.81,-0.002354225,-0.005333178,-4.7807756E-5,32.7,20.1,-41.100002
0.17723145,0.46942386,9.75252,-2.23696E-4,-5.394877E-4,-0.0011130723,32.7,19.650002,-41.550003
0.14849122,0.53169435,9.77647,-0.0018215927,0.0037215701,0.0047458825,32.550003,21.150002,-42.45
0.18681154,0.45984375,9.75252,0.0019068329,-6.8554655E-6,-4.7807756E-5,33.45,21.45,-42.300003
0.13891114,0.5221143,9.7812605,0.0024394651,-0.0010721199,-0.0011130723,32.550003,20.25,-40.95
0.16765137,0.46463382,9.77647,-0.002354225,-5.394877E-4,4.8482447E-4,31.2,20.25,-42.9
0.17723145,0.50774413,9.79563,-7.563282E-4,-0.0010721199,4.8482447E-4,31.95,19.800001,-41.7
0.12933107,0.40715334,9.7621,-0.0018215927,-0.007996339,0.0047458825,31.35,19.650002,-41.550003
0.086220704,0.45505372,9.843531,-0.0034194894,0.0037215701,4.8482447E-4,33.75,19.650002,-41.100002
0.16286133,0.48379397,9.81958,-0.0018215927,-0.0069310744,-0.007504659,32.100002,20.7,-41.550003
0.19639161,0.488584,9.800421,-0.004484754,-6.8554655E-6,0.0047458825,33.0,20.550001,-42.15
0.119750984,0.488584,9.79563,0.0056352587,0.0042542024,0.006343779,33.300003,20.550001,-42.45
0.1341211,0.46463382,9.74773,-0.0018215927,0.0015910412,-0.0016457045,31.800001,21.45,-41.850002
0.12454102,0.488584,9.766891,8.4156846E-4,-5.394877E-4,-0.01016782,32.7,20.1,-40.65
0.13891114,0.46463382,9.78605,-7.563282E-4,-0.0016047521,0.002082721,31.95,20.25,-42.45
0.17244141,0.5364844,9.77168,-0.0023609127,-0.0010793982,0.0015511913,33.300003,20.25,-41.7
0.15328126,0.39757326,9.848321,0.0045633065,0.0031816596,0.010073307,33.45,21.0,-42.75
0.11496094,0.46463382,9.77168,0.0019001451,-0.0032099271,-0.003775131,33.300003,21.6,-42.45
0.1580713,0.5125342,9.78605,0.0013675129,0.0015837629,-0.004307763,32.550003,19.800001,-42.15
0.07664063,0.40715334,9.74294,0.0034980418,5.184985E-4,0.0010185591,32.100002,20.400002,-41.100002
0.16765137,0.53169435,9.800421,-0.0023609127,5.184985E-4,0.0042143525,33.9,21.150002,-40.5
0.13891114,0.488584,9.7812605,-0.0012956483,-0.0032099271,0.0015511913,33.15,22.050001,-42.75
0.16286133,0.5221143,9.78605,0.0061612027,-1.4133751E-5,-0.0048403954,32.4,20.1,-41.550003
0.13891114,0.45984375,9.7812605,0.0029654095,-0.0032099271,-5.7933753E-4,32.4,19.650002,-41.100002
0.15328126,0.53169435,9.829161,0.0013675129,-0.009601515,-4.6705303E-5,33.600002,20.550001,-40.95
0.119750984,0.46463382,9.72378,3.022484E-4,0.0015837629,-0.0048403954,33.9,20.550001,-40.050003
0.1580713,0.42152345,9.829161,0.0040306738,0.0037142918,-0.0011119698,33.600002,20.550001,-41.25
0.13891114,0.51732427,9.7621,0.005095938,-5.46766E-4,0.0010185591,33.75,20.400002,-41.100002
0.19160157,0.46463382,9.77647,0.0040306738,-1.4133751E-5,0.003149088,33.15,20.400002,-40.65
0.14849122,0.4406836,9.75731,3.022484E-4,0.0037142918,-0.003775131,33.45,19.650002,-40.350002
0.18681154,0.488584,9.78605,-0.0023609127,-0.0021446627,-5.7933753E-4,33.15,21.0,-41.100002
0.17244141,0.4023633,9.843531,-0.0023609127,-0.0069383527,0.0042143525,33.0,20.550001,-40.5
0.13891114,0.48379397,9.79084,0.0034980418,5.184985E-4,4.8592692E-4,34.050003,20.1,-41.550003
0.16286133,0.45026368,9.766891,-2.3038383E-4,-0.0058730883,-0.0069709243,32.7,19.650002,-41.550003
0.15328126,0.488584,9.69504,0.0029654095,0.0015837629,0.0026164558,33.300003,20.550001,-41.25
0.1820215,0.488584,9.81,-0.0087525,-0.0010793982,4.8592692E-4,34.050003,21.75,-42.75
0.119750984,0.5221143,9.74773,0.0029654095,-0.0074709854,0.0010185591,33.0,20.550001,-42.15
0.16286133,0.48379397,9.77168,0.0019001451,-0.0016120304,0.0015511913,31.95,21.6,-40.5
0.14370118,0.45026368,9.766891,0.002463541,0.004813037,4.808557E-4,33.9,21.150002,-42.15
0.17723145,0.5221143,9.857901,-0.0065912073,-0.0010459179,0.0020787525,33.45,20.400002,-41.100002
0.1820215,0.50774413,9.77168,-0.002330149,5.519788E-4,0.0020787525,33.9,20.25,-41.7
0.21076173,0.45984375,9.80521,0.00459407,-0.0010459179,-5.8440876E-4,33.75,19.35,-42.300003
0.18681154,0.4406836,9.77647,-7.322524E-4,-0.0031764468,-0.0016496732,32.25,20.85,-42.9
0.17723145,0.45984375,9.73815,-7.322524E-4,-5.1328563E-4,-0.0027149376,33.600002,20.550001,-41.7
0.14370118,0.46463382,9.79563,0.0040614377,-0.0015785501,-0.0032475698,33.15,20.400002,-40.65
0.043110352,0.48379397,9.800421,3.3301208E-4,-0.0042417105,-0.001117041,33.300003,20.550001,-41.25
0.17723145,0.48379397,9.881851,-0.0033954135,-0.008502768,-0.0027149376,34.95,19.5,-42.15
0.119750984,0.47900394,9.7812605,0.0077898633,0.004813037,0.0036766492,33.0,20.550001,-42.15
0.1101709,0.50774413,9.7621,0.002463541,-0.0015785501,0.0010134879,33.15,19.35,-42.300003
0.16286133,0.41194338,9.7812605,-0.0017975168,-0.007437505,4.808557E-4,32.550003,20.25,-42.15
0.09580079,0.45505372,9.74773,-0.0028627813,-0.0026438145,0.0010134879,32.4,18.6,-41.550003
0.1580713,0.42152345,9.79084,3.3301208E-4,0.00321514,0.0026113847,33.300003,20.85,-41.25
0.1341211,0.4742139,9.82437,-0.0033954135,0.0058783013,-0.0021823053,31.800001,21.0,-41.850002
0.12933107,0.488584,9.73815,0.005126702,0.0037477722,-0.001117041,33.15,20.7,-41.550003
0.13891114,0.45505372,9.80521,-0.00499331,0.001084611,0.0020787525,33.600002,19.5,-39.300003
0.13891114,0.46942386,9.800421,-0.008721736,-0.0026438145,0.003144017,32.550003,21.6,-40.5
0.1101709,0.45026368,9.77647,-0.0033954135,-0.004774343,-0.0021823053,34.95,19.5,-42.45
0.10538086,0.52690434,9.81,-1.9962015E-4,0.0021498755,-0.001117041,33.0,19.5,-40.5
0.119750984,0.4263135,9.81,-7.322524E-4,5.519788E-4,0.0047419136,33.15,19.650002,-41.850002
0.13891114,0.49337405,9.690249,0.0029961732,0.0058783013,-0.003780202,32.4,20.7,-40.350002
0.12454102,0.51732427,9.72378,0.005126702,-0.003709079,0.0026113847,32.4,20.1,-41.850002
0.1580713,0.5125342,9.766891,-0.0023461997,-0.0021286502,4.8350153E-4,33.9,21.6,-42.15
0.14849122,0.5029541,9.733359,0.0051106513,-0.0026612824,-0.0043101883,32.550003,20.550001,-41.7
0.12454102,0.43589357,9.79563,-0.003944096,-0.0021286502,0.0042119273,32.25,21.150002,-40.050003
0.1580713,0.45505372,9.74773,-7.48303E-4,1.8787105E-6,0.005809824,34.5,19.050001,-41.550003
0.13891114,0.4981641,9.77168,-0.0012809352,-0.0031939147,0.0042119273,32.7,20.1,-41.550003
0.12933107,0.46463382,9.814791,-0.0023461997,0.0037303043,0.0031466626,33.75,20.7,-41.100002
0.14849122,0.43110353,9.77168,-0.0066072578,-5.307535E-4,-0.0037775564,33.300003,21.150002,-39.300003
0.06706055,0.46463382,9.74294,0.0024474903,-0.0031939147,-0.0048428206,32.550003,20.25,-40.050003
0.14370118,0.4742139,9.74773,0.005643284,-0.0042591784,0.0020813982,34.050003,20.1,-41.100002
0.11496094,0.51732427,9.7142,-0.0018135675,0.009056627,-0.002712292,33.0,20.550001,-42.9
0.13891114,0.47900394,9.857901,-0.0023461997,-0.0058570756,0.0036792948,33.9,20.25,-40.5
0.09101075,0.44547364,9.75252,-0.009270418,-0.0021286502,-0.0021796597,34.95,21.150002,-41.7
0.14370118,0.46942386,9.79563,-2.1567079E-4,-0.0010633857,-0.0011143952,32.550003,18.900002,-40.95
0.20118165,0.45984375,9.79563,0.0067085484,-5.307535E-4,-4.91307E-5,34.350002,19.800001,-41.25
0.12454102,0.46942386,9.872271,0.005643284,0.0015997754,0.0036792948,33.9,21.900002,-40.95
0.12454102,0.45984375,9.7621,0.0051106513,-0.0021286502,-5.817629E-4,32.25,19.2,-41.25
0.13891114,0.488584,9.73815,0.0051106513,0.0026650399,-0.0011143952,32.7,20.400002,-41.850002
0.15328126,0.3305127,9.77168,-2.1567079E-4,-0.0026612824,-0.0011143952,34.050003,19.650002,-41.850002
0.16765137,0.4263135,9.79084,-0.002878832,1.8787105E-6,0.0015487659,33.300003,19.800001,-40.95
0.1580713,0.49337405,9.7621,-0.0034114642,5.3451094E-4,-0.0011143952,33.300003,20.550001,-41.25
0.12933107,0.5029541,9.829161,0.005643284,-0.0026612824,-0.0037775564,31.050001,21.45,-39.9
0.12454102,0.5125342,9.814791,-7.48303E-4,-0.0042591784,-0.005375453,34.350002,20.85,-41.25
0.12933107,0.44547364,9.80521,-0.002878832,1.8787105E-6,0.0010161337,32.550003,19.2,-40.95
0.12454102,0.52690434,9.83874,0.0035047294,0.0021236737,-0.0032436012,34.050003,20.400002,-41.550003
0.15328126,0.488584,9.77168,0.0067005227,0.0037215704,-0.002710969,33.75,20.7,-40.350002
0.14849122,0.44547364,9.81,-0.0018215929,-0.0010721197,-0.0021783367,32.4,20.1,-41.100002
0.13891114,0.53169435,9.81,-0.0012889607,-0.0010721197,4.8482447E-4,33.9,19.2,-41.7
0.13891114,0.5125342,9.77168,0.0061678905,0.0058520995,0.0010174566,32.4,20.7,-41.850002
0.17723145,0.53169435,9.7621,8.415682E-4,-0.0032026486,0.0015500889,33.15,20.7,-42.300003
0.14849122,0.5221143,9.814791,0.0029720971,0.0015910415,-5.8044E-4,34.350002,20.25,-40.5
0.13891114,0.5748047,9.77647,-0.011941604,-0.0016047519,4.8482447E-4,33.300003,20.85,-41.7
0.21555176,0.60354495,9.73815,0.0013742005,0.0010584092,-4.7807756E-5,32.550003,20.25,-41.7
0.17244141,0.5125342,9.800421,-0.008213179,-5.3948746E-4,-0.0016457045,33.75,21.45,-40.65
0.1820215,0.47900394,9.75252,0.004569994,0.005319467,-0.0032436012,33.15,20.7,-40.65
0.17723145,0.41194338,9.77168,-0.003952122,-0.0016047519,-0.0021783367,32.550003,21.150002,-42.9
0.12933107,0.51732427,9.7621,0.008831052,0.0074499957,-5.8044E-4,33.9,19.800001,-41.7
0.14849122,0.5412744,9.7142,0.007765787,5.25777E-4,0.005811147,32.4,19.35,-40.350002
0.19639161,0.5029541,9.77168,0.0061678905,0.0010584092,-0.0016457045,33.600002,19.800001,-41.25
0.16286133,0.51732427,9.7142,0.002439465,-5.3948746E-4,-0.0011130723,32.550003,18.900002,-40.050003
0.2203418,0.45505372,9.733359,-0.0012889607,5.25777E-4,-4.7807756E-5,32.550003,18.900002,-40.050003
0.12933107,0.488584,9.75731,0.0019068327,-0.0010721197,4.8482447E-4,33.15,20.1,-41.550003
0.15328126,0.4406836,9.83874,0.0029720971,-5.3948746E-4,-0.0011130723,32.4,19.650002,-40.65
0.21076173,0.44547364,9.74294,-0.0012889607,-0.0042679124,-0.0037762334,33.15,21.0,-41.100002
0.1820215,0.5029541,9.77647,0.0061678905,0.005319467,0.0068764114,33.600002,21.150002,-42.45
0.13891114,0.53169435,9.74294,-0.007147915,0.0021236737,-0.0016457045,32.25,20.550001,-41.7
0.20118165,0.5029541,9.833951,0.0013742005,-6.8552326E-6,-4.7807756E-5,33.600002,20.25,-42.15
0.13891114,0.49337405,9.75731,0.002430102,-0.0032128382,0.0036821612,33.600002,18.900002,-42.15
0.13891114,0.46463382,9.833951,-0.006092014,-0.0037454704,-0.0032420577,33.15,19.650002,-40.65
0.16765137,0.42152345,9.79084,2.9957318E-4,-1.7044833E-5,-0.0021767933,31.800001,20.400002,-40.350002
0.19160157,0.40715334,9.81,0.0018974699,-0.0010823093,0.0026168968,33.300003,18.900002,-39.75
0.1580713,0.48379397,9.78605,-0.006092014,-0.0074738963,-5.7889655E-4,33.600002,20.550001,-38.850002
0.1341211,0.45505372,9.814791,-0.0018309557,-0.0037454704,0.0047474257,32.7,20.7,-41.850002
0.1101709,0.4981641,9.6758795,-0.002363588,0.0015808519,-0.0021767933,31.35,20.400002,-41.550003
0.10538086,0.4406836,9.766891,-0.0044941166,-0.0021475737,-0.0011115288,33.15,19.35,-41.550003
0.15328126,0.50774413,9.81958,2.9957318E-4,0.0015808519,0.0010190001,32.4,20.1,-41.550003
0.081430666,0.5125342,9.75252,-0.0028962202,-0.0032128382,-0.0032420577,32.4,21.45,-42.75
0.09101075,0.50774413,9.733359,0.002430102,-0.0032128382,0.0074105863,33.0,19.800001,-40.5
0.23950197,0.39757326,9.72378,0.004560631,0.0063745417,-0.0021767933,33.600002,20.550001,-39.300003
0.11496094,0.45984375,9.766891,0.002430102,0.00584191,0.005280058,34.65,19.5,-42.15
0.1820215,0.48379397,9.82437,2.9957318E-4,-0.0010823093,0.0010190001,34.350002,20.25,-41.7
0.09101075,0.42152345,9.848321,-0.0034288524,-0.00853916,0.0020842645,33.75,20.7,-41.100002
0.14370118,0.4742139,9.77647,-0.0018309557,-5.4967706E-4,0.0010190001,33.300003,20.550001,-41.7
0.2203418,0.488584,9.77168,8.322054E-4,-5.4967706E-4,-0.0011115288,33.0,20.550001,-42.15
0.17244141,0.5125342,9.75252,-0.0018309557,0.009037703,-0.0011115288,32.25,19.5,-40.95
0.13891114,0.4406836,9.72378,-0.00768991,-0.0010823093,0.0047474257,33.9,19.800001,-41.25
0.12933107,0.5029541,9.77647,-0.0050267493,-1.7044833E-5,0.0010190001,33.0,20.550001,-42.45
0.15328126,0.5508545,9.857901,-0.0018309557,-0.004278102,-0.006437851,33.600002,20.550001,-42.45
0.1341211,0.38320315,9.73815,0.0013648376,0.0031787485,4.863679E-4,33.0,21.150002,-41.25
0.14370118,0.43110353,9.814791,-0.0012983235,-0.0021475737,-4.6264322E-5,33.45,20.7,-41.100002
0.19160157,0.48379397,9.74773,-0.005559381,-1.7044833E-5,-0.0032420577,32.550003,20.25,-40.95
0.05269043,0.4742139,9.7812605,3.042547E-4,0.0015859467,0.0015508607,33.15,19.050001,-41.100002
0.1820215,0.4742139,9.83874,-0.009283125,-0.0032077434,0.0010182285,32.550003,20.25,-40.050003
0.16286133,0.4742139,9.79563,0.0024347836,-0.005338273,0.0010182285,33.9,19.2,-42.9
0.15328126,0.488584,9.80521,0.0029674158,-0.002142479,0.002083493,33.15,20.7,-39.9
0.1341211,0.4023633,9.79084,-0.001293642,-0.0048056403,0.002083493,33.75,20.400002,-42.75
0.119750984,0.45026368,9.79563,0.0066958414,0.007977533,0.004214022,33.45,20.1,-39.9
0.09580079,0.47900394,9.718989,-0.008750494,-0.0037403756,0.0015508607,33.75,20.7,-40.350002
0.1580713,0.4981641,9.81958,-0.0055546993,0.0037164756,-0.0059059905,32.7,20.400002,-42.75
0.119750984,0.4981641,9.848321,-7.6100975E-4,-0.002142479,-0.0037754616,34.800003,20.400002,-41.550003
0.14370118,0.44547364,9.7621,-0.003424171,-0.0042730076,-0.0011123004,32.100002,21.0,-42.300003
0.100590825,0.5364844,9.800421,0.0045653125,5.206822E-4,0.004746654,33.300003,21.150002,-40.95
0.12454102,0.5221143,9.77647,-0.0076852283,0.0053143725,-0.0016449327,32.25,20.25,-40.95
0.1341211,0.50774413,9.862691,-0.0050220676,-0.005338273,0.0026161252,33.600002,21.150002,-40.050003
0.11496094,0.45984375,9.77168,0.0019021514,-0.0037403756,-0.0011123004,32.550003,21.150002,-42.45
0.1580713,0.46463382,9.7812605,8.3688693E-4,0.0037164756,0.004214022,32.550003,20.85,-41.7
0.1820215,0.43589357,9.77647,0.0024347836,0.0021185789,0.0026161252,32.100002,20.400002,-40.65
0.13891114,0.48379397,9.79084,0.010424267,0.0053143725,-0.008569151,33.45,20.7,-42.75
0.16765137,0.4263135,9.77168,-0.0023589064,-0.0037403756,4.855962E-4,32.7,21.0,-40.65
0.1341211,0.4981641,9.81,0.0045653125,5.206822E-4,-0.0016449327,33.75,19.050001,-42.300003
0.09580079,0.4742139,9.77168,0.0066958414,0.007977533,0.002083493,33.0,19.5,-40.5
0.20118165,0.4742139,9.857901,-0.0044894353,0.0015859467,-0.0016449327,33.300003,20.550001,-42.9
0.1820215,0.48379397,9.733359,-0.006087332,0.004249108,-0.0032428293,31.650002,21.150002,-41.7
0.17244141,0.41194338,9.867481,-0.001293642,-0.0042730076,-0.0016449327,33.600002,20.550001,-42.45
0.10538086,0.46942386,9.79084,0.0019021514,-1.1950033E-5,0.002083493,32.7,20.400002,-41.100002
0.1101709,0.488584,9.79563,0.0045653125,0.0021185789,0.0026161252,32.7,20.400002,-41.850002
0.14370118,0.488584,9.79084,0.0029674158,-0.005870905,0.004214022,33.45,20.400002,-40.350002
0.15328126,0.5556446,9.77647,0.0024347836,0.0010533144,-0.0064386227,33.15,20.400002,-40.350002
0.17723145,0.488584,9.7621,-0.0028915387,0.0010533144,-0.0027101971,34.5,20.7,-40.65
0.16286133,0.43110353,9.766891,0.0029674158,0.0010533144,-5.7966827E-4,32.25,20.550001,-42.45
0.21555176,0.47900394,9.833951,-0.009283125,-0.0037403756,-0.0053733583,33.0,20.550001,-40.5
0.13891114,0.45505372,9.80521,0.0013695192,-5.4458226E-4,-0.002177565,32.550003,19.800001,-40.95
0.14370118,0.56522465,9.78605,0.006163209,-0.0016098467,0.0052792863,33.0,20.25,-43.350002
0.19639161,0.48379397,9.77168,-2.2837752E-4,-0.0010772145,-0.0016449327,33.0,21.150002,-41.25
0.07664063,0.46942386,9.75731,-0.006087332,-0.0026751112,-0.0059059905,32.25,20.550001,-40.95
0.13891114,0.49337405,9.814791,-0.0028915387,0.0015859467,4.855962E-4,31.95,20.550001,-42.45
0.15328126,0.45984375,9.72857,0.0045653125,-1.1950033E-5,0.0010182285,32.25,18.900002,-39.75
0.12454102,0.4406836,9.74294,-0.0023589064,-0.005870905,-4.703604E-5,32.550003,22.2,-42.15
0.12933107,0.43589357,9.833951,-0.0023589064,0.0010533144,-0.0027101971,32.550003,22.2,-42.15
0.1820215,0.45984375,9.7621,0.0024347836,0.00478174,0.0036813896,32.550003,19.5,-42.15
0.19160157,0.43110353,9.79084,-0.0028915387,5.206822E-4,-0.0032428293,32.25,20.550001,-40.5
0.09580079,0.45984375,9.881851,0.0040326803,0.00478174,-5.7966827E-4,31.650002,20.85,-40.050003
0.1341211,0.4981641,9.78605,-0.0055546993,0.00478174,0.0036813896,31.95,22.2,-42.15
0.12933107,0.4742139,9.7621,-0.0018262742,-0.002142479,0.002083493,31.650002,20.25,-40.5
0.14370118,0.4742139,9.766891,0.0024347836,0.0010533144,0.0026161252,31.35,20.400002,-42.300003
0.11496094,0.44547364,9.80521,0.003500048,5.206822E-4,0.0074098147,31.650002,22.2,-44.4
0.14370118,0.46942386,9.896221,-0.0044894353,-0.0032077434,-0.0027101971,32.25,20.85,-43.350002
0.14370118,0.4023633,9.848321,-0.004502142,-5.58411E-4,-0.0069691604,31.800001,21.45,-42.75
0.1341211,0.45984375,9.75252,-9.3056425E-4,7.5848633E-4,0.0016568066,31.800001,20.400002,-40.65
0.10538086,0.49337405,9.80521,0.0038631258,2.258541E-4,0.002722071,33.0,21.150002,-40.95
0.13891114,0.39757326,9.843531,-0.0014631965,-8.3941035E-4,-0.006332677,30.900002,21.150002,-41.7
0.1820215,0.45505372,9.7621,0.0033304936,-3.0677812E-4,-0.0010063546,31.800001,21.45,-42.300003
0.12454102,0.53169435,9.75252,1.3470021E-4,0.0034216475,-0.002071619,31.35,22.050001,-42.75
0.14849122,0.46942386,9.833951,-0.0019958287,-0.006698365,-4.737223E-4,31.2,20.85,-41.7
0.13891114,0.45026368,9.79084,0.0070589194,0.007150073,0.0037873355,31.650002,20.25,-42.9
0.13891114,0.47900394,9.79084,-3.9793202E-4,-0.002437307,0.0011241743,33.75,20.7,-41.850002
0.12933107,0.45026368,9.733359,6.6733244E-4,-0.002437307,-0.002071619,32.100002,21.45,-41.850002
0.18681154,0.4406836,9.733359,1.3470021E-4,-0.004567836,-0.0036695157,32.100002,21.45,-41.850002
0.1341211,0.43110353,9.75731,-0.0014631965,0.002356383,-0.0058000446,33.0,20.25,-41.25
0.1580713,0.49337405,9.656719,0.0027978614,-0.006698365,-0.0026042513,33.0,21.150002,-40.050003
0.17244141,0.43589357,9.79563,-0.0035937254,2.258541E-4,-0.006332677,33.9,20.25,-40.050003
0.21076173,0.53169435,9.83874,0.0027978614,0.0028890152,5.9154216E-4,32.4,21.75,-41.550003
0.1580713,0.45505372,9.766891,-0.0051916223,-0.002437307,0.0011241743,32.4,20.1,-41.100002
0.14370118,0.42152345,9.73815,-9.3056425E-4,0.0028890152,-4.737223E-4,33.0,20.550001,-41.25
0.07185059,0.46942386,9.77168,0.0022652291,-3.0677812E-4,0.0021894388,32.25,20.550001,-42.15
0.06706055,0.4742139,9.79084,0.0038631258,-0.0019046748,0.0011241743,32.7,21.0,-40.65
0.14849122,0.5221143,9.78605,1.3470021E-4,0.0018237508,0.002722071,33.45,20.1,-41.550003
0.17244141,0.49337405,9.829161,6.6733244E-4,2.258541E-4,-0.0026042513,32.550003,20.25,-41.25
0.16286133,0.4742139,9.896221,-0.005724254,0.0055521764,0.0059178644,33.15,21.0,-41.100002
0.1101709,0.4981641,9.77647,-0.0035937254,-0.004567836,-4.737223E-4,33.45,19.35,-41.550003
0.13891114,0.43589357,9.74773,-9.3056425E-4,2.258541E-4,0.0016568066,33.600002,21.6,-40.95
0.1341211,0.3879932,9.7621,-0.0020093457,-0.0013889088,-0.0052653146,33.300003,21.150002,-42.45
0.06227051,0.4742139,9.814791,0.0033169766,2.0898785E-4,-0.002069521,32.7,20.7,-39.45
0.14849122,0.46942386,9.77168,-0.0041398746,-8.562766E-4,5.9364E-4,33.300003,20.550001,-41.7
0.1341211,0.45505372,9.733359,0.0049148733,-8.562766E-4,0.0011262723,32.550003,21.150002,-42.15
0.1341211,0.46463382,9.800421,0.0027843444,-0.0061825984,5.9364E-4,33.300003,21.150002,-40.95
0.1820215,0.45026368,9.77168,0.0017190799,0.0023395168,-0.0052653146,31.95,20.85,-42.45
0.1341211,0.4742139,9.848321,-0.0014767135,-0.004584702,-0.0015368889,32.550003,19.2,-40.050003
0.17723145,0.5508545,9.78605,0.007045402,-3.2364437E-4,0.008050491,32.7,21.0,-42.300003
0.14849122,0.48379397,9.77168,-4.11449E-4,0.0012742523,0.002724169,32.7,19.650002,-42.75
0.12933107,0.43589357,9.73815,6.5381546E-4,0.0039374135,0.0021915368,33.75,20.7,-39.45
0.10538086,0.53169435,9.74773,0.0017190799,0.0018068845,0.0021915368,32.7,20.400002,-42.75
0.14849122,0.4406836,9.81,0.0011864477,7.416201E-4,0.0064525944,32.4,21.45,-42.300003
0.100590825,0.50774413,9.7621,0.0022517121,0.0018068845,0.0011262723,32.7,19.35,-43.050003
0.14849122,0.45505372,9.79563,0.0022517121,-3.2364437E-4,0.0069852266,33.45,20.1,-40.350002
0.1580713,0.50774413,9.83874,0.0022517121,0.002872149,0.0032568013,32.550003,20.550001,-41.7
0.14849122,0.47900394,9.77168,0.0022517121,-3.2364437E-4,0.0069852266,33.9,19.5,-41.7
0.17723145,0.4742139,9.81,-0.0030746101,-0.005117335,5.9364E-4,32.550003,20.550001,-41.25
0.10538086,0.45984375,9.814791,-0.0020093457,-0.0029868055,0.002724169,32.25,19.800001,-40.5
0.12454102,0.5221143,9.80521,-0.0020093457,2.0898785E-4,0.0011262723,32.25,19.5,-42.45
0.119750984,0.5221143,9.7812605,6.5381546E-4,2.0898785E-4,0.00538733,33.15,19.050001,-39.15
0.15328126,0.51732427,9.800421,-0.0041398746,0.0044700457,-0.0026021532,31.35,20.1,-39.9
0.1341211,0.42152345,9.77168,-4.11449E-4,0.0034047812,5.9364E-4,34.5,20.7,-40.65
0.10538086,0.4742139,9.7621,-0.006803036,7.416201E-4,-0.0015368889,32.25,19.2,-41.25
0.15328126,0.5029541,9.7812605,0.0017190799,0.002872149,-0.002069521,33.45,20.1,-41.850002
0.1580713,0.488584,9.77168,0.008105235,-3.3042254E-4,0.004322909,33.600002,19.800001,-40.95
0.13891114,0.4742139,9.910591,0.001181016,2.0220969E-4,5.944831E-4,33.75,19.35,-40.350002
0.119750984,0.46942386,9.75252,-9.4951293E-4,-0.001395687,0.0021923797,34.050003,21.0,-41.100002
0.12933107,0.41194338,9.867481,6.4838375E-4,-8.6305477E-4,-4.7078138E-4,33.45,18.6,-41.850002
0.16286133,0.45505372,9.81,0.0027789127,-8.6305477E-4,-0.0026013104,31.800001,19.650002,-41.550003
0.13891114,0.5508545,9.843531,0.001181016,7.348419E-4,0.004322909,33.600002,21.900002,-42.9
0.1580713,0.47900394,9.82437,-9.4951293E-4,0.0018001064,-0.0036665748,32.100002,20.1,-41.850002
0.07664063,0.488584,9.733359,0.0027789127,7.348419E-4,-0.0010034136,32.7,20.400002,-41.850002
0.12933107,0.488584,9.75252,0.0027789127,0.0018001064,-0.0031339426,32.7,20.1,-41.850002
0.16765137,0.46463382,9.82437,-0.007873732,2.0220969E-4,-4.7078138E-4,32.550003,19.5,-42.15
0.12933107,0.488584,9.79563,-0.009471629,0.0018001064,-0.0052644713,32.550003,21.6,-42.9
0.20597169,0.47900394,9.7812605,0.0027789127,0.0044632675,-0.0031339426,33.15,20.400002,-40.65
0.1580713,0.5125342,9.79084,0.004376809,7.348419E-4,0.0037902764,31.800001,21.0,-41.550003
0.20597169,0.48379397,9.877061,0.0022462804,-0.0024609515,5.944831E-4,32.7,20.1,-41.550003
0.15328126,0.40715334,9.75252,0.0059747063,0.0039306353,-0.004731839,32.550003,21.6,-42.15
0.11496094,0.5460645,9.75731,0.0091705,-3.3042254E-4,-0.0015360458,33.45,20.1,-41.100002
0.1341211,0.49337405,9.80521,-4.168807E-4,0.0023327386,0.004855541,32.25,19.800001,-40.95
0.16765137,0.5221143,9.80521,6.4838375E-4,-0.0019283192,-0.0036665748,33.300003,19.5,-39.75
0.12454102,0.5029541,9.72378,-9.4951293E-4,-0.009917803,-0.0020686781,32.550003,20.550001,-40.95
0.09101075,0.45505372,9.843531,0.004376809,-0.005124113,0.0011271153,33.300003,21.6,-41.7
0.17244141,0.5029541,9.766891,0.0022462804,-8.6305477E-4,-0.0015360458,32.7,20.1,-40.350002
0.119750984,0.49337405,9.79084,-0.011069526,-0.001395687,-0.0052644713,32.550003,21.150002,-40.5
0.16286133,0.4406836,9.75731,-0.0020147774,-0.0019283192,-0.0031339426,32.100002,20.1,-41.100002
0.16765137,0.5125342,9.75252,0.0027789127,-0.0029935837,-0.0031339426,32.550003,20.85,-41.7
0.22513184,0.4406836,9.72857,1.1575152E-4,-8.6305477E-4,-0.007927633,33.9,20.550001,-40.5
0.07185059,0.488584,9.77168,-9.4951293E-4,2.0220969E-4,-0.004731839,33.45,19.050001,-40.350002
0.16286133,0.46942386,9.881851,-0.0030800418,-0.0040588477,-0.0015360458,33.45,20.7,-41.550003
0.12933107,0.44547364,9.867481,-0.0020147774,-3.3042254E-4,-0.004199207,34.800003,21.45,-41.100002
0.2203418,0.46463382,9.77168,0.001181016,-0.0019283192,0.0021923797,32.7,20.7,-42.300003
0.1820215,0.5460645,9.7812605,-0.0041453065,-0.0045914804,-0.0020686781,34.800003,20.400002,-42.300003
0.14849122,0.53169435,9.72857,-0.0062758354,2.0220969E-4,0.0011271153,33.15,19.650002,-40.65
0.16286133,0.45984375,9.75731,0.0038441771,7.348419E-4,-0.004199207,33.0,20.25,-41.25
0.18681154,0.488584,9.77647,-0.0041453065,2.0220969E-4,0.0011271153,33.45,21.0,-39.45
0.1101709,0.51732427,9.7621,0.003311545,0.0012674741,5.944831E-4,33.75,19.650002,-40.350002
0.12933107,0.4981641,9.862691,6.4838375E-4,-0.0024609515,-0.0010034136,32.550003,20.85,-41.7
0.16286133,0.46942386,9.800421,-0.0020147774,-0.0019283192,5.944831E-4,33.45,20.1,-39.45
0.10538086,0.4742139,9.77168,0.0017136482,0.0012674741,5.944831E-4,33.75,20.1,-41.550003
0.1101709,0.4263135,9.78605,1.1575152E-4,0.0018001064,0.0011271153,33.75,21.45,-41.100002
0.12933107,0.45505372,9.77647,-0.0030800418,7.348419E-4,0.004855541,33.9,20.85,-41.25
0.11496094,0.5125342,9.78605,0.001181016,-3.3042254E-4,0.0016597476,33.9,22.2,-40.5
0.15328126,0.4742139,9.704619,1.1575152E-4,-0.0061893766,-0.004199207,33.15,20.400002,-39.9
0.20118165,0.44547364,9.75731,-4.168807E-4,0.0049958997,-0.0020686781,32.7,21.0,-41.850002
0.15328126,0.45984375,9.814791,-0.0025474096,-0.0019283192,-0.0052644713,33.75,19.050001,-41.550003
0.07664063,0.4023633,9.766891,0.0022462804,0.003398003,-0.004731839,31.050001,20.7,-41.550003
0.17244141,0.35925296,9.80521,-0.0025474096,7.348419E-4,0.002725012,32.7,20.400002,-40.350002
0.14370118,0.4742139,9.73815,-0.0030800418,0.0018001064,-4.7078138E-4,32.25,20.85,-41.7
0.12933107,0.48379397,9.80521,0.003311545,-0.0019283192,5.944831E-4,33.75,21.45,-41.850002
0.19639161,0.48379397,9.79084,-0.0014857664,0.0033934847,-0.002068116,32.7,20.7,-41.550003
0.10538086,0.46942386,9.800421,0.0022426592,-0.0024654698,6.241287E-5,32.7,20.7,-41.550003
0.16765137,0.4406836,9.857901,-9.5313415E-4,0.0012629558,-0.0010028516,31.650002,20.25,-40.95
0.17723145,0.45026368,9.75731,-0.0020183986,0.0028608525,-0.0031333806,32.25,20.85,-42.15
0.14370118,0.5125342,9.75731,6.4476253E-4,0.0028608525,-0.0010028516,31.650002,19.5,-41.25
0.15328126,0.5221143,9.7621,0.0027752914,0.004458749,-0.002068116,33.0,20.25,-40.5
0.12933107,0.45026368,9.6758795,-0.0036162953,-8.675731E-4,6.241287E-5,33.0,18.900002,-40.5
0.1580713,0.39278322,9.77647,0.009166878,0.0012629558,-0.004198645,33.45,20.7,-42.300003
0.18681154,0.4981641,9.83874,1.1213031E-4,-8.675731E-4,0.0037908384,33.0,21.6,-41.7
0.20597169,0.46942386,9.77647,-0.0046815597,-0.0051286314,0.0011276773,34.350002,20.25,-39.75
0.119750984,0.44547364,9.829161,-0.0046815597,-0.006193895,6.241287E-5,33.45,21.45,-40.350002
0.11496094,0.488584,9.85311,-0.005214192,0.006056646,6.241287E-5,32.4,20.7,-42.300003
0.100590825,0.5221143,9.843531,1.1213031E-4,-8.675731E-4,0.0021929417,32.7,19.650002,-41.550003
0.1101709,0.49337405,9.7812605,-0.010007882,-0.002998102,-0.0015354839,33.300003,20.85,-40.5
0.17244141,0.44547364,9.75252,-9.5313415E-4,-8.675731E-4,-0.0010028516,32.4,20.7,-41.850002
0.1341211,0.488584,9.73815,-0.0025510308,1.9769138E-4,-0.0026007483,31.650002,19.800001,-40.95
0.119750984,0.4167334,9.718989,0.006503717,-8.675731E-4,-0.0026007483,32.7,20.400002,-40.65
0.22513184,0.45984375,9.79563,-0.0020183986,-0.004063366,0.004856103,33.300003,20.85,-43.350002
0.13891114,0.5221143,9.685459,-9.5313415E-4,-0.0014002053,-0.002068116,33.45,19.650002,-42.300003
0.14849122,0.47900394,9.733359,0.003840556,1.9769138E-4,0.004323471,32.7,21.0,-42.300003
0.14849122,0.45984375,9.7621,-0.0036162953,0.0017955881,-0.0010028516,34.050003,19.650002,-42.300003
0.1820215,0.41194338,9.79563,6.4476253E-4,-3.3494085E-4,-0.0010028516,32.550003,21.150002,-40.95
0.14849122,0.4742139,9.78605,-4.2050192E-4,-0.0051286314,0.0037908384,32.7,19.650002,-42.300003
0.17244141,0.47900394,9.833951,-0.0035963787,-0.00297325,-0.0010059427,33.45,20.7,-41.550003
0.1341211,0.48379397,9.79563,0.0043931045,-0.004571147,-4.7331047E-4,32.550003,19.800001,-42.45
0.09101075,0.46942386,9.79084,0.0081215305,-0.004038514,5.9321756E-5,33.300003,21.6,-40.050003
0.1101709,0.5125342,9.81,0.0043931045,-0.004038514,5.9321756E-5,33.300003,20.25,-40.050003
0.1341211,0.43110353,9.82437,-9.332176E-4,0.0012878077,-4.7331047E-4,32.550003,20.550001,-40.050003
0.11496094,0.50774413,9.718989,-9.332176E-4,-3.1008897E-4,5.9321756E-5,32.7,19.650002,-40.65
0.09580079,0.45984375,9.79084,0.0011973113,0.0034183366,-0.0026038394,33.15,20.1,-41.550003
0.15328126,0.5029541,9.800421,0.0033278402,-0.004571147,-4.7331047E-4,32.100002,20.7,-40.65
0.1820215,0.45026368,9.80521,-0.0057269074,-0.00297325,-0.0031364716,33.45,21.45,-40.65
0.11496094,0.48379397,9.77168,0.0038604725,-0.0013753534,-0.0042017363,34.050003,20.7,-41.850002
0.15328126,0.4742139,9.78605,0.0033278402,7.551755E-4,5.91954E-4,32.7,20.400002,-40.350002
0.12933107,0.5364844,9.82437,-0.0073248046,-3.1008897E-4,-0.0020712072,32.7,19.050001,-40.65
0.17244141,0.48379397,9.80521,-0.006792173,0.0018204399,-0.0052670008,32.25,20.85,-41.25
0.1341211,0.4981641,9.81,6.646791E-4,-0.0035058823,5.9321756E-5,34.350002,20.550001,-41.25
0.1580713,0.48379397,9.7812605,-0.0051942756,-0.002440618,0.0011245862,32.25,19.2,-42.15
0.16286133,0.488584,9.800421,0.0033278402,0.0023530722,0.0011245862,33.600002,19.800001,-41.25
0.1820215,0.488584,9.857901,6.646791E-4,-3.1008897E-4,0.0021898507,32.7,21.0,-42.300003
0.1341211,0.42152345,9.75252,0.0017299436,-3.1008897E-4,0.0037877474,33.15,21.0,-41.550003
0.14849122,0.45026368,9.79563,0.0038604725,-0.002440618,-0.0015385749,33.300003,19.5,-40.95
0.19639161,0.4263135,9.843531,0.007056266,0.003950969,-0.0026038394,32.550003,20.85,-42.15
0.21555176,0.45505372,9.73815,-0.0014658498,-0.0056364113,0.0037877474,32.550003,20.85,-40.95
0.12933107,0.43110353,9.85311,-0.0014658498,0.00661413,-0.0010059427,32.100002,21.0,-41.100002
0.16765137,0.48379397,9.85311,0.0043931045,0.003950969,0.0037877474,33.45,21.0,-41.850002
0.12454102,0.43589357,9.843531,-4.0058536E-4,0.0012878077,-0.0010059427,33.300003,19.5,-40.5
0.11496094,0.45026368,9.79563,0.0059734993,-8.645607E-4,-0.0010032263,32.7,19.650002,-41.550003
0.14849122,0.42152345,9.81958,-9.507199E-4,-0.0029950896,-4.7059404E-4,32.550003,20.550001,-41.25
0.10538086,0.4167334,9.81958,0.0054408666,-0.005658251,-0.004731652,32.25,20.25,-41.25
0.12933107,0.5412744,9.7812605,0.004375602,7.3333597E-4,0.0053883605,31.050001,19.650002,-39.9
0.15328126,0.57959473,9.83874,-0.007874939,0.0028638649,-0.0020684907,32.7,22.050001,-41.850002
0.1820215,0.48379397,9.800421,-0.0025486166,2.0070374E-4,0.002192567,34.350002,20.85,-42.9
0.1341211,0.4981641,9.79084,0.001179809,0.0017986004,0.007518889,32.7,20.400002,-41.550003
0.14849122,0.46463382,9.80521,-4.180877E-4,0.0017986004,6.203819E-5,32.550003,19.800001,-40.95
0.15328126,0.48379397,9.905801,-0.005211778,0.004994394,0.0027251993,34.65,19.800001,-40.5
0.1341211,0.44547364,9.77168,-0.0025486166,-0.0024624574,6.203819E-5,31.35,20.7,-41.850002
0.1820215,0.45505372,9.77168,0.0017124412,0.0012659682,0.002192567,31.35,21.45,-41.100002
0.119750984,0.5125342,9.78605,-4.180877E-4,2.0070374E-4,-0.0010032263,31.35,21.45,-41.550003
0.05269043,0.46463382,9.75731,0.003310338,0.0017986004,0.006453625,32.100002,21.0,-41.850002
0.17244141,0.47900394,9.6758795,-0.005211778,-0.008321412,0.0059209927,31.2,20.85,-42.15
0.15328126,0.4406836,9.699829,-0.0025486166,-0.0024624574,-0.0020684907,30.45,22.050001,-41.550003
0.1580713,0.45026368,9.7812605,-0.0046791453,-8.645607E-4,-0.0010032263,31.800001,20.1,-41.100002
0.1341211,0.52690434,9.81,-0.005211778,-0.007256148,-0.0036663874,32.7,20.7,-43.050003
0.19639161,0.5125342,9.800421,0.001179809,-0.0045929863,0.002192567,32.550003,20.85,-43.65
0.13891114,0.4981641,9.79563,-0.0020159844,-8.645607E-4,-0.0041990196,31.35,20.7,-41.550003
0.14370118,0.46942386,9.7621,0.003310338,0.005527026,-0.002601123,31.35,19.650002,-41.850002
0.10538086,0.4167334,9.75731,0.0054408666,0.0012659682,0.0037904638,31.95,21.6,-41.25
0.12933107,0.488584,9.79084,-0.003613881,-0.0035277219,-0.002601123,32.4,20.1,-40.65
0.09580079,0.45984375,9.79563,1.1454453E-4,-0.0035277219,0.0048557282,32.100002,22.050001,-41.100002
0.15328126,0.46463382,9.77168,-9.507199E-4,-0.0035277219,6.203819E-5,33.0,19.5,-42.9
0.07664063,0.4981641,9.857901,-9.368388E-4,0.0012832889,-4.7274845E-4,32.4,21.0,-40.350002
0.07664063,0.48379397,9.74773,-0.001469471,-0.0013798722,0.0016577805,32.550003,21.900002,-42.9
0.1820215,0.42152345,9.78605,-4.0420657E-4,0.0050117145,-0.0010053806,33.0,20.25,-42.45
0.16286133,0.488584,9.81,-0.0030673677,2.1802448E-4,0.0021904127,32.4,21.0,-41.550003
0.1101709,0.45026368,9.800421,0.0022589546,7.506567E-4,-0.006331703,33.0,19.800001,-41.25
0.12933107,0.40715334,9.75252,-0.0020021033,-0.0035104011,-0.0015380129,33.45,20.400002,-42.300003
0.16765137,0.45984375,9.77168,1.2842566E-4,0.00394645,0.002723045,31.050001,20.7,-44.25
0.1820215,0.41194338,9.83874,-9.368388E-4,-0.0035104011,0.0016577805,31.800001,19.050001,-41.100002
0.17244141,0.52690434,9.77168,-0.0036,-0.0024451367,0.0016577805,32.4,20.400002,-41.850002
0.18681154,0.45505372,9.79084,-0.0030673677,-0.0035104011,0.0069841025,33.15,20.400002,-41.100002
0.14370118,0.44547364,9.6758795,0.003324219,-0.0024451367,0.0021904127,33.600002,21.6,-41.25
0.06706055,0.46942386,9.81,0.003324219,0.0034138178,-0.0031359096,32.4,20.1,-41.850002
0.16286133,0.5029541,9.78605,0.0038568513,0.0012832889,0.0016577805,32.7,21.45,-41.850002
0.1580713,0.41194338,9.74294,-0.001469471,-0.0013798722,-0.0031359096,33.300003,20.85,-42.15
0.15328126,0.5364844,9.78605,0.0038568513,-8.4724E-4,0.0021904127,34.350002,20.25,-40.050003
0.14849122,0.4167334,9.78605,-0.0030673677,0.0018159212,-0.0026032773,33.15,20.400002,-41.550003
0.100590825,0.47900394,9.7621,-9.368388E-4,-0.004043033,-0.0068643354,33.600002,20.550001,-40.050003
0.1341211,0.49337405,9.800421,0.0043894835,0.0055443468,-4.7274845E-4,33.15,21.45,-41.550003
0.14370118,0.488584,9.77647,0.0043894835,7.506567E-4,-0.0068643354,32.550003,20.85,-42.15
0.1820215,0.41194338,9.82437,-0.0051978966,-0.0019125044,-0.0015380129,34.5,20.1,-41.550003
0.16286133,0.51732427,9.81,-4.0420657E-4,0.0012832889,-0.0031359096,32.7,19.650002,-42.300003
0.1341211,0.5029541,9.766891,-0.001469471,7.506567E-4,-4.7274845E-4,33.15,21.0,-39.9
0.12933107,0.48379397,9.829161,6.610579E-4,-0.0024451367,-0.0042011742,33.0,19.5,-40.050003
0.1580713,0.42152345,9.79084,-4.0420657E-4,0.0023485534,0.0021904127,34.5,19.650002,-43.050003
0.11496094,0.5221143,9.833951,0.004378016,0.0012689806,-0.0015362331,33.15,20.400002,-41.100002
0.1341211,0.44547364,9.83874,-0.0025462026,-0.00618787,-0.0020688653,32.550003,19.2,-41.7
0.05748047,0.49337405,9.77647,6.4959074E-4,0.0033995095,-0.0020688653,32.25,19.800001,-41.7
0.119750984,0.46463382,9.75252,0.0022474874,0.004464774,0.001126928,33.600002,20.550001,-39.75
0.1820215,0.4742139,9.766891,-4.156737E-4,0.006595303,-4.7096872E-4,33.300003,20.85,-41.25
0.22513184,0.5125342,9.7621,0.0027801197,-3.2891612E-4,0.0037900892,32.7,20.7,-42.300003
0.14370118,0.5029541,9.70941,0.0054432806,0.002334245,0.012312205,34.5,19.650002,-41.100002
0.18681154,0.44547364,9.79084,6.4959074E-4,-0.0013941806,-0.008460452,32.7,20.400002,-41.550003
0.1580713,0.46463382,9.78605,0.001182223,0.0018016128,0.001126928,33.15,20.400002,-42.300003
0.13891114,0.46463382,9.75731,0.010769603,0.0055300384,6.166351E-5,32.25,20.550001,-41.25
0.22513184,0.49337405,9.81,0.0022474874,7.3634833E-4,0.001126928,32.7,19.050001,-41.550003
0.09101075,0.43110353,9.82437,0.001182223,0.0033995095,0.010181676,33.45,21.75,-41.850002
0.14849122,0.5125342,9.74773,-0.0041440995,-3.2891612E-4,-0.0047320267,34.050003,20.400002,-42.300003
0.12454102,0.4742139,9.79084,0.0017148552,-0.004589974,0.001126928,33.0,19.2,-41.25
0.12933107,0.44547364,9.77647,0.004910649,0.0028668772,0.003257457,32.4,19.650002,-41.850002
0.15328126,0.40715334,9.814791,0.008106442,0.0028668772,-0.0063299234,33.15,20.7,-41.850002
0.16765137,0.45505372,9.77168,0.003845384,-0.0029920773,-0.0026014976,33.300003,20.550001,-41.25
0.100590825,0.4406836,9.833951,0.0070411777,-0.0029920773,-0.0010036009,31.95,21.150002,-42.15
0.06227051,0.488584,9.7621,0.004910649,0.0012689806,0.0016595603,32.7,20.400002,-40.65
0.12454102,0.42152345,9.73815,-0.006807261,-0.0029920773,0.001126928,32.550003,20.25,-40.5
0.19160157,0.43110353,9.69504,-0.005209364,-0.0051226066,0.0021921925,33.0,19.800001,-40.95
0.086220704,0.45505372,9.79563,0.0017148552,-0.0029920773,-0.0015362331,33.300003,19.800001,-40.050003
0.15328126,0.45984375,9.77168,6.4959074E-4,0.0018016128,-0.0068625556,33.9,18.45,-42.9
0.21555176,0.37362307,9.77168,-0.0020135704,-0.004589974,6.166351E-5,32.550003,21.6,-42.45
0.13891114,0.5125342,9.800421,-0.0014730922,0.0039419318,-0.0026027153,33.45,20.7,-40.65
0.14370118,0.4981641,9.72857,0.00385323,-0.002449655,0.0016583425,33.45,20.400002,-41.100002
0.18681154,0.48379397,9.78605,-0.0057341494,7.461384E-4,-0.004200612,32.7,20.7,-41.550003
0.1101709,0.41194338,9.80521,1.2480444E-4,-0.002449655,6.0445804E-5,33.9,18.150002,-40.050003
0.12933107,0.4263135,9.79084,-0.0014730922,-0.0013843905,0.0016583425,33.600002,20.25,-40.95
0.18681154,0.488584,9.833951,-0.0057341494,2.1350617E-4,-4.7218642E-4,34.65,20.550001,-40.95
0.1341211,0.46942386,9.766891,0.0043858625,0.0018114028,-0.0015374508,33.9,21.900002,-40.5
0.14370118,0.488584,9.81,-0.0036036212,0.0028766673,0.0043215035,33.15,19.050001,-39.9
0.20118165,0.47900394,9.72378,0.0017227011,-0.0077759773,0.0037888715,32.25,19.5,-41.7
0.12933107,0.51732427,9.80521,0.0017227011,-0.0072433455,0.0021909748,33.600002,20.25,-42.45
0.081430666,0.4981641,9.72857,-0.0014730922,-3.1912606E-4,-0.004200612,33.45,20.400002,-41.550003
0.16765137,0.43589357,9.78605,0.0011900689,-3.1912606E-4,0.002723607,31.95,20.25,-41.7
0.12454102,0.4263135,9.77168,-4.0782779E-4,0.0034092995,5.9307803E-4,33.9,21.150002,-39.75
0.09580079,0.47900394,9.800421,0.0022553334,-0.0013843905,-4.7218642E-4,33.45,21.0,-41.850002
0.20597169,0.46463382,9.829161,0.0022553334,0.0018114028,-0.0052658767,33.600002,20.25,-42.15
0.20118165,0.47900394,9.80521,6.5743667E-4,-0.002449655,-0.0047332444,34.800003,21.45,-42.75
0.13891114,0.5221143,9.814791,-4.0782779E-4,-0.0013843905,-0.0015374508,33.0,19.800001,-40.050003
0.16286133,0.46942386,9.79084,-0.008929944,-0.0019170227,-0.0031353475,33.300003,20.550001,-40.050003
0.12454102,0.48379397,9.74294,-0.004136253,0.009268254,-0.0010048186,33.45,20.1,-40.65
0.043110352,0.48379397,9.891431,-0.0057341494,-0.004047551,-0.0026027153,33.300003,20.550001,-41.7
0.16286133,0.46463382,9.800421,-0.0020057245,0.0028766673,0.0032562392,32.7,20.1,-40.65
0.16286133,0.45026368,9.77168,0.0043858625,0.0034092995,-0.002070083,32.550003,20.550001,-42.15
0.1101709,0.45026368,9.800421,-0.0025383567,-0.004047551,-0.0036679797,32.7,20.7,-43.5
0.18681154,0.4742139,9.77168,-0.0014833522,0.0012659682,-0.002601123,33.45,20.400002,-41.550003
0.16286133,0.4742139,9.7621,-0.0020159844,-0.0045929863,-0.0015358585,33.15,20.400002,-41.100002
0.1341211,0.5029541,9.75252,0.0054408666,-0.0019298252,-4.7059404E-4,34.050003,19.35,-41.100002
0.12454102,0.5460645,9.77168,0.0022450734,-3.319285E-4,0.0027251993,32.25,20.550001,-40.050003
0.17244141,0.38320315,9.699829,-0.0030812488,-0.005125619,-0.002601123,32.550003,20.25,-40.5
0.086220704,0.4406836,9.77647,0.006506131,0.003396497,-0.006862181,33.75,20.1,-41.550003
0.15328126,0.5843848,9.80521,0.0027777057,-0.0024624574,0.0016599349,33.0,20.85,-39.75
0.13891114,0.5508545,9.85311,-0.005211778,-0.0045929863,-4.7059404E-4,32.4,20.1,-41.850002
0.119750984,0.51732427,9.833951,0.0017124412,7.3333597E-4,-0.002601123,33.300003,20.25,-42.15
0.14370118,0.5221143,9.78605,-9.507199E-4,-0.0019298252,-0.002601123,33.45,20.400002,-40.65
0.05748047,0.5125342,9.77647,1.1454453E-4,0.0071249227,0.0027251993,32.25,19.2,-41.25
0.1101709,0.45984375,9.81,0.001179809,-3.319285E-4,0.0016599349,34.350002,21.150002,-41.7
0.12933107,0.4981641,9.704619,-0.005211778,-0.0035277219,5.946704E-4,33.75,20.400002,-41.550003
0.119750984,0.46942386,9.862691,-0.0030812488,-0.001397193,-0.0020684907,34.050003,20.1,-43.5
0.1341211,0.45984375,9.81,0.006506131,-0.0024624574,0.0011273026,33.15,21.0,-42.300003
0.13891114,0.44547364,9.78605,-9.507199E-4,-3.319285E-4,-4.7059404E-4,33.45,21.0,-40.350002
0.21076173,0.46463382,9.80521,-4.180877E-4,0.0023312327,0.0016599349,33.15,20.1,-41.550003
0.17723145,0.38320315,9.82437,-0.0014833522,7.3333597E-4,-0.0020684907,33.600002,20.550001,-41.25
0.17723145,0.4742139,9.766891,0.0038429701,-0.001397193,-0.0041990196,32.4,20.400002,-42.300003
0.1341211,0.488584,9.78605,-0.007342307,-0.0040603536,-0.0041990196,34.350002,19.800001,-39.75
0.1820215,0.46463382,9.78605,-0.006809675,0.0071249227,0.0053883605,34.5,21.45,-40.65
0.15328126,0.43110353,9.800421,0.0017124412,0.0023312327,-0.005264284,32.100002,20.400002,-42.300003
0.09580079,0.50774413,9.7812605,0.0017124412,-0.005658251,-0.0020684907,33.45,20.1,-40.350002
0.15328126,0.45984375,9.7812605,-0.0052087605,-0.0035239565,0.0016594665,33.300003,19.5,-40.5
0.086220704,0.46463382,9.814791,-4.1507022E-4,0.0028676302,0.0021920986,33.15,19.650002,-41.100002
0.16765137,0.4742139,9.7812605,-0.002012967,2.0446908E-4,0.0011268343,33.45,20.1,-40.350002
0.16286133,0.488584,9.81958,6.5019424E-4,-0.0056544854,0.0064531565,33.75,19.050001,-41.850002
0.11496094,0.40715334,9.79563,0.002248091,0.0034002624,0.0021920986,32.25,20.25,-41.25
0.1101709,0.47900394,9.7812605,0.0011828265,-8.607954E-4,-0.0026015914,33.45,21.75,-40.65
0.1341211,0.46942386,9.75731,-9.4770244E-4,0.002334998,6.156985E-5,34.350002,20.85,-41.7
0.17244141,0.488584,9.81958,0.002248091,0.0034002624,5.942021E-4,32.25,19.800001,-40.95
0.21076173,0.45984375,9.79084,-0.0073392894,-3.2816315E-4,0.0011268343,33.300003,20.550001,-40.95
0.13891114,0.4406836,9.81,0.0049112523,7.371013E-4,-4.7106238E-4,32.25,22.2,-41.25
0.14849122,0.4981641,9.79084,-4.1507022E-4,0.004998159,5.942021E-4,33.300003,20.550001,-42.15
0.10538086,0.4742139,9.7621,-0.0057413923,-0.0051218537,0.008051054,34.65,20.85,-41.7
0.18681154,0.488584,9.766891,-0.0030782314,2.0446908E-4,-0.005797385,33.300003,20.550001,-41.25
0.10538086,0.488584,9.77647,-0.004676128,-0.0040565883,5.942021E-4,33.0,20.25,-41.25
0.15328126,0.44547364,9.800421,0.0049112523,-0.008850278,-0.005797385,33.45,20.7,-42.300003
0.21076173,0.5029541,9.814791,-0.002012967,-0.0029913243,0.0043226276,34.800003,20.400002,-40.65
0.1101709,0.5556446,9.814791,-0.002012967,0.0034002624,-0.0020689592,32.550003,19.800001,-40.5
0.10538086,0.4406836,9.77168,0.0011828265,0.0034002624,5.942021E-4,32.100002,20.1,-40.65
0.14849122,0.46942386,9.814791,-0.004143496,0.0012697335,-0.0020689592,32.25,20.550001,-41.7
0.086220704,0.44547364,9.78605,0.0011828265,-0.0019260598,0.0021920986,32.7,21.0,-41.850002
0.14849122,0.488584,9.81958,-9.4770244E-4,0.0028676302,0.0027247309,33.9,19.2,-40.95
0.10538086,0.43589357,9.7812605,1.1756201E-4,0.0034002624,0.0037899953,33.15,20.7,-42.300003
0.100590825,0.5412744,9.77168,-0.0025455991,-8.607954E-4,0.0037899953,31.800001,20.7,-42.300003
0.12454102,0.46463382,9.81,-4.2653712E-4,7.2279293E-4,0.0043244073,34.95,19.2,-41.25
0.1820215,0.46942386,9.79563,0.002236624,-0.0024730004,-0.0047303406,33.300003,20.85,-41.25
0.12454102,0.47900394,9.814791,6.697704E-4,-4.6539656E-4,5.643687E-4,33.15,19.35,-41.850002
0.19639161,0.45026368,9.78605,0.0038655638,0.0027303968,0.0042927945,33.15,20.7,-41.100002
0.1101709,0.53169435,9.77168,-0.0019933907,0.0043282937,-5.008958E-4,32.7,19.650002,-39.9
0.19639161,0.48379397,9.82437,6.697704E-4,-0.0047264546,-5.008958E-4,35.100002,21.0,-41.550003
0.13891114,0.51732427,9.7812605,0.002267667,0.0016651324,0.0021622654,34.5,20.7,-40.350002
0.16765137,0.49337405,9.77647,0.004930828,0.0016651324,-0.0020987925,34.65,21.6,-41.25
0.1820215,0.44547364,9.79084,0.004398196,-9.980288E-4,-0.0058272183,32.7,20.7,-41.550003
0.14370118,0.46942386,9.77647,1.3713818E-4,0.0021977646,0.0021622654,33.75,19.35,-41.100002
0.14849122,0.51732427,9.800421,6.697704E-4,0.0043282937,0.005358059,33.45,21.45,-40.65
0.1580713,0.46942386,9.6758795,-0.0019933907,6.723567E-5,0.0058906907,33.45,20.7,-40.65
0.14370118,0.4981641,9.81958,1.3713818E-4,0.0016651324,-0.0026314247,32.100002,20.7,-43.800003
0.1101709,0.45984375,9.8866415,6.697704E-4,-0.0148464665,-0.0058272183,33.300003,19.800001,-41.25
0.12454102,0.50774413,9.74294,-0.0035912874,0.005393558,-0.0026314247,33.0,19.5,-41.7
0.06706055,0.488584,9.75731,0.0012024026,-0.0031285577,0.005358059,34.800003,19.35,-40.350002
0.15328126,0.5221143,9.800421,-3.9549405E-4,-0.0047264546,-0.004761954,33.600002,19.5,-40.050003
0.15328126,0.40715334,9.833951,1.3713818E-4,-0.0020632932,-0.0020987925,33.45,19.650002,-40.65
0.18681154,0.45026368,9.80521,-0.002526023,-0.007389616,-0.004229321,33.45,20.1,-39.45
0.16286133,0.488584,9.80521,0.004398196,0.0064588226,3.1736447E-5,33.75,20.7,-42.75
0.16765137,0.53169435,9.77647,0.004398196,0.0016651324,-0.0020987925,33.15,20.1,-41.100002
0.12454102,0.47900394,9.829161,1.3713818E-4,-0.004193822,-0.001033528,33.75,20.1,-41.550003
0.1580713,0.46942386,9.800421,-0.0019933907,0.0011325001,-0.001033528,33.15,20.7,-41.100002
0.18681154,0.45984375,9.766891,-0.0089315185,-4.821287E-4,-4.986341E-4,33.600002,20.25,-41.25
0.12933107,0.53169435,9.82437,-0.006268357,-0.0010147609,0.0037624238,32.4,20.400002,-41.550003
0.16765137,0.43589357,9.77647,0.005449552,0.0027136647,0.0016318948,33.75,20.400002,-41.550003
0.12933107,0.45505372,9.766891,0.0049169194,0.0027136647,0.002164527,33.600002,20.550001,-40.95
0.12933107,0.46942386,9.74294,-0.003605196,5.0503528E-5,0.0016318948,31.800001,20.400002,-41.100002
0.15328126,0.45984375,9.814791,-0.0020072993,-0.0031452898,0.0042950558,33.600002,20.25,-40.95
0.119750984,0.46463382,9.85311,-0.0030725638,0.0016484002,0.0042950558,33.75,20.7,-41.550003
0.16765137,0.45505372,9.77647,-0.0052030925,0.0048441933,0.0026971593,33.15,20.1,-41.550003
0.18681154,0.4742139,9.81,-0.0030725638,-0.0031452898,0.0016318948,33.0,20.85,-40.5
0.12933107,0.46463382,9.81,-0.0057357242,-0.0020800254,3.3998105E-5,31.95,20.85,-41.25
0.16286133,0.52690434,9.77647,-0.0025399316,-4.821287E-4,-0.0020965307,34.800003,19.35,-42.75
0.06706055,0.4406836,9.78605,-0.0052030925,0.0016484002,0.0042950558,34.800003,21.0,-41.100002
0.1580713,0.4263135,9.833951,-0.0014746671,0.0069747223,0.004827688,33.0,20.25,-42.15
0.16286133,0.46942386,9.79084,-0.0014746671,-0.0010147609,-0.0058249566,33.0,21.6,-42.9
0.09101075,0.5221143,9.800421,0.005982184,0.001115768,-0.0031617952,32.7,19.050001,-41.850002
0.12933107,0.45984375,9.77647,-0.0014746671,-0.0074063484,-4.986341E-4,33.600002,20.550001,-41.25
0.11496094,0.46942386,9.81958,-0.0020072993,5.8313576E-4,-0.0052923243,34.350002,21.6,-40.5
0.19160157,0.49337405,9.73815,0.0038516552,0.0027136647,-4.986341E-4,33.9,20.85,-41.25
0.119750984,0.45505372,9.70941,6.558618E-4,5.0503528E-5,0.00536032,33.45,20.1,-41.550003
0.14849122,0.46463382,9.862691,1.2322958E-4,-0.0031452898,0.0010992626,32.7,20.7,-43.5
0.16286133,0.4981641,9.77647,0.001188494,0.008039987,-4.986341E-4,32.7,20.1,-41.100002
0.14849122,0.45026368,9.82437,-0.004137828,-4.821287E-4,-4.986341E-4,32.7,20.7,-40.350002
0.12454102,0.4742139,9.848321,0.007580081,-0.0010147609,-0.0052923243,33.300003,19.5,-40.95
0.17723145,0.48379397,9.82437,6.558618E-4,0.0016484002,-0.002629163,33.45,20.400002,-41.550003
0.12933107,0.46463382,9.74294,8.8054454E-5,5.4081925E-4,0.0016376147,34.050003,20.1,-41.550003
0.15328126,0.45984375,9.80521,8.8054454E-5,-0.0042528706,-0.004753972,34.350002,19.800001,-42.9
0.1101709,0.46463382,9.83874,-0.0020424745,5.4081925E-4,-0.002623443,32.7,19.35,-41.100002
0.1101709,0.5364844,9.7812605,0.0027512156,-0.005318136,-0.0015581787,33.45,21.75,-40.350002
0.17723145,0.48379397,9.7621,0.0022185834,-0.0010570774,0.002170247,33.15,21.0,-41.550003
0.14849122,0.488584,9.766891,0.0032838478,0.0026713482,5.723502E-4,33.0,19.800001,-41.7
0.14370118,0.5125342,9.7621,6.206867E-4,-0.007981297,0.0058986726,33.15,20.1,-40.350002
0.18681154,0.44547364,9.77168,-0.0015098422,-0.0031876063,0.004300776,31.95,20.85,-40.5
0.119750984,0.4742139,9.77647,-0.007901428,8.187024E-6,-0.0031560753,32.550003,20.85,-40.95
0.12454102,0.46942386,9.77647,-0.0025751067,0.0026713482,-0.0020908108,31.35,20.400002,-40.65
0.15328126,0.50774413,9.814791,0.005414377,-0.0015897097,-4.9291423E-4,32.4,20.7,-40.65
0.14849122,0.48379397,9.79084,-0.009499325,-5.244452E-4,-0.0015581787,32.7,20.7,-41.100002
0.15328126,0.45505372,9.75731,0.0022185834,0.0032039804,0.002170247,33.0,20.25,-42.15
0.07664063,0.4742139,9.75252,0.0016859511,-0.002122342,0.0032355115,33.45,20.400002,-42.300003
0.1101709,0.45026368,9.75731,-4.4457777E-4,-0.002122342,-0.0015581787,33.45,21.0,-42.75
0.12454102,0.488584,9.75731,0.00381648,0.002138716,0.004300776,32.550003,20.25,-43.65
0.15328126,0.5460645,9.77168,-9.7721E-4,5.4081925E-4,0.0011049825,32.7,19.35,-41.850002
0.1580713,0.47900394,9.74773,0.0059470087,0.006399774,0.004833408,33.300003,19.800001,-42.15
0.1820215,0.4742139,9.833951,0.0027512156,-0.0015897097,-0.0015581787,32.4,20.400002,-41.850002
0.10538086,0.49337405,9.829161,0.0016859511,-0.002654974,-0.0042213397,34.5,21.0,-40.65
0.17723145,0.47900394,9.733359,-0.0036403711,0.0074650384,3.9717997E-5,33.45,19.050001,-40.65
0.12454102,0.5364844,9.77647,0.0048817443,-0.002122342,-0.004753972,32.4,20.7,-41.850002
0.16765137,0.4981641,9.843531,-9.7721E-4,0.0037366126,0.0027028793,31.800001,20.1,-40.350002
0.09101075,0.488584,9.77647,-0.0030828738,-0.003157693,0.005361997,33.0,21.6,-42.15
0.081430666,0.45026368,9.843531,-0.0057460344,0.0048317905,-0.0026274866,33.300003,20.550001,-41.25
0.09101075,0.46942386,9.80521,0.0038413452,0.0032338938,-0.0020948544,32.550003,19.800001,-40.95
0.12454102,0.48379397,9.72857,0.0038413452,0.0016359971,-0.0047580153,32.4,20.7,-40.65
0.25387207,0.45026368,9.81,0.0043739774,0.0011033649,-0.0020948544,34.5,20.400002,-41.100002
0.20597169,0.5125342,9.75731,-0.0073439316,0.0027012615,0.001100939,34.800003,20.400002,-42.300003
0.22513184,0.48379397,9.7812605,-0.0020176093,-0.003157693,-0.0015622221,33.600002,19.800001,-40.95
0.12933107,0.45984375,9.78605,0.0027760807,0.0011033649,-0.0015622221,34.350002,19.5,-41.25
0.11496094,0.4263135,9.78605,-0.0030828738,-0.009549281,0.0037641001,32.550003,20.550001,-40.5
0.14849122,0.5508545,9.848321,0.0022434485,-0.005820854,-0.0026274866,33.600002,20.550001,-41.7
0.20118165,0.5364844,9.80521,0.0049066097,-4.945318E-4,5.6830683E-4,33.75,19.650002,-40.350002
0.17723145,0.42152345,9.83874,0.0011781841,0.0016359971,-0.0031601188,33.45,19.650002,-41.100002
0.14849122,0.45984375,9.766891,6.4555183E-4,0.0032338938,0.0016335712,32.7,20.7,-40.65
0.09101075,0.4406836,9.77647,-0.0025502415,0.0016359971,0.003231468,32.25,21.150002,-40.050003
0.12454102,0.5604346,9.800421,-4.1971263E-4,-0.001027164,0.001100939,33.600002,21.6,-40.5
0.1341211,0.47900394,9.81,-0.0068113,-0.0020924285,-0.003692751,32.7,20.7,-43.050003
0.21076173,0.5221143,9.814791,0.0011781841,0.0027012615,0.009623054,33.9,20.25,-40.050003
0.19639161,0.42152345,9.80521,0.003308713,-0.003157693,0.0021662035,33.15,21.45,-41.550003
0.05748047,0.45505372,9.685459,0.005439242,5.7073263E-4,-0.0031601188,33.0,21.6,-42.15
0.06706055,0.46463382,9.77168,-0.0014849771,0.0027012615,-4.969576E-4,33.45,20.400002,-39.9
0.10538086,0.43589357,9.77168,0.0049066097,0.0021686293,-0.0031601188,34.350002,19.800001,-41.7
0.15328126,0.41194338,9.80521,-0.004148138,-0.0026250607,-0.0015622221,33.75,20.400002,-40.350002
0.13891114,0.4981641,9.857901,0.0011781841,0.0048317905,0.0016335712,32.550003,20.25,-41.25
0.244292,0.45026368,9.75252,-0.004168758,-0.0021172347,-0.0031567658,32.4,20.7,-40.65
0.1101709,0.45505372,9.78605,0.007016519,0.002143823,5.716599E-4,33.0,20.25,-41.25
0.14370118,0.42152345,9.79084,-0.002038229,0.0016111908,3.9027655E-5,32.4,20.1,-41.550003
0.16765137,0.45505372,9.70941,0.0032880933,0.0010785586,0.005897982,32.550003,19.800001,-40.5
0.14849122,0.4742139,9.833951,-0.002038229,-0.0058456603,-0.0052872947,32.550003,22.2,-42.15
0.12933107,0.5029541,9.70941,-0.0036361257,0.0010785586,0.0011042921,33.75,20.1,-43.5
0.09580079,0.4406836,9.81958,-0.0025708613,0.0026764553,0.003234821,34.050003,20.1,-40.350002
0.1341211,0.48379397,9.73815,-0.006299287,-0.0031824992,5.716599E-4,33.0,19.5,-41.25
0.18681154,0.5029541,9.829161,0.0038207255,-0.004247763,0.0048327176,32.7,20.400002,-41.100002
0.05748047,0.42152345,9.73815,0.0059512546,0.0037417198,-0.0020915014,31.95,20.550001,-41.25
0.09580079,0.47900394,9.79084,0.002755461,0.0037417198,0.0016369243,33.15,20.1,-40.350002
0.14370118,0.48379397,9.79563,-0.0025708613,0.0074701454,0.0011042921,33.9,20.25,-40.5
0.09580079,0.5029541,9.843531,-0.002038229,-0.004247763,5.716599E-4,33.75,20.400002,-41.550003
0.20118165,0.5748047,9.78605,0.0038207255,-5.1933806E-4,5.716599E-4,33.0,21.6,-40.5
0.10538086,0.4406836,9.79084,-0.0057666544,-0.0010519703,5.716599E-4,32.7,20.400002,-40.65
0.1820215,0.48379397,9.833951,0.002755461,0.0010785586,-0.0020915014,32.550003,18.900002,-39.300003
0.1820215,0.4263135,9.79084,0.002755461,-5.1933806E-4,-0.0010262368,34.050003,21.0,-40.65
0.10538086,0.45984375,9.814791,-4.4033234E-4,0.0016111908,-0.001558869,33.300003,20.85,-40.5
0.12454102,0.51732427,9.862691,-0.002038229,-0.004780396,0.0021695565,32.7,20.1,-40.65
0.16765137,0.5029541,9.74294,-0.0015055968,-0.006378292,0.0011042921,32.550003,20.550001,-41.25
0.1341211,0.42152345,9.848321,-0.007897183,-0.0074435575,0.0048327176,33.600002,21.150002,-41.25
0.1341211,0.4742139,9.733359,6.249321E-4,0.0016111908,-0.0010262368,31.95,20.550001,-42.15
0.1341211,0.5125342,9.77168,0.002755461,0.0037417198,-4.936046E-4,32.25,19.2,-41.7
0.13891114,0.4263135,9.80521,0.0016744283,0.0010595892,-0.0047520986,34.5,20.1,-41.850002
0.16286133,0.4406836,9.77647,0.0011417961,-0.0026688364,0.0016394884,31.95,21.150002,-41.25
0.12933107,0.4742139,9.800421,-9.887328E-4,-0.0037341008,-0.001556305,32.4,19.650002,-41.550003
0.14370118,0.45984375,9.77647,-0.0031192617,-0.0026688364,-0.0026215694,33.15,20.400002,-42.75
0.20597169,0.57001466,9.74773,-0.0025866295,0.005320647,0.0043026498,32.25,19.5,-41.25
0.12454102,0.5125342,9.79563,0.0027396928,5.26957E-4,-0.0026215694,31.800001,20.1,-40.65
0.17723145,0.4981641,9.814791,0.003272325,-5.675247E-6,0.003237385,33.0,21.150002,-40.5
0.16286133,0.46463382,9.79563,0.0038049573,0.002657486,0.0021721206,32.4,19.650002,-41.100002
0.119750984,0.4742139,9.7621,7.6531665E-5,-5.383075E-4,4.1591702E-5,33.45,20.1,-41.100002
0.1341211,0.45026368,9.699829,-4.5610056E-4,-0.0026688364,-4.910405E-4,33.300003,20.550001,-40.95
0.19160157,0.50774413,9.81,-9.887328E-4,-0.0016035719,0.0037700173,33.45,19.35,-41.100002
0.17723145,0.46463382,9.800421,-0.0031192617,0.0021248537,4.1591702E-5,33.300003,19.5,-41.25
0.19160157,0.42152345,9.80521,0.0011417961,0.0031901181,0.0021721206,33.15,20.1,-42.75
0.028740235,0.47900394,9.79084,-0.003651894,0.0037227503,5.7422393E-4,34.350002,20.25,-41.7
0.13891114,0.45984375,9.74294,7.6531665E-5,-0.0010709397,4.1591702E-5,32.4,19.650002,-41.100002
0.119750984,0.46942386,9.82437,0.0016744283,0.0015922214,-0.007947892,33.15,21.45,-40.65
0.22992188,0.42152345,9.814791,-0.005249791,-0.0016035719,-0.001556305,33.600002,20.85,-41.7
0.16765137,0.5508545,9.82437,0.008066015,0.0015922214,-0.0031542017,33.600002,19.800001,-40.5
0.1820215,0.41194338,9.74294,6.091639E-4,-0.004799365,-0.003686834,33.300003,20.550001,-40.5
0.047900394,0.45984375,9.80521,-0.0031192617,0.006918544,-4.910405E-4,33.45,20.7,-40.65
0.1101709,0.4406836,9.81958,-0.0020539972,-0.0010709397,-0.0020889372,34.050003,20.1,-41.550003
0.047900394,0.43589357,9.75731,-0.008445584,0.0021248537,0.0043026498,32.7,19.35,-41.100002
0.20597169,0.5221143,9.74294,-9.887328E-4,-0.0016035719,-0.0026215694,33.45,21.45,-43.050003
0.10538086,0.52690434,9.800421,-0.004194836,0.0015798183,0.0027064295,33.600002,20.550001,-41.25
0.12933107,0.45984375,9.75731,6.622169E-5,-0.0032138717,0.003771694,33.45,19.650002,-39.9
0.07664063,0.4406836,9.73815,0.003262015,-5.507106E-4,0.001641165,32.7,20.400002,-41.850002
0.14370118,0.488584,9.82437,-0.003662204,-0.0021486073,0.0021737972,34.5,21.45,-40.65
0.2203418,0.49337405,9.7812605,-9.990428E-4,5.1455386E-4,0.001641165,32.550003,19.5,-42.15
0.2203418,0.46463382,9.718989,5.988539E-4,0.003177715,0.0048369584,33.15,21.45,-40.350002
0.16286133,0.4981641,9.7812605,5.988539E-4,0.0037103472,0.001641165,33.0,20.550001,-40.95
0.10538086,0.4167334,9.7621,0.009120969,0.005840876,0.0032390617,33.45,20.400002,-40.65
0.100590825,0.43110353,9.75731,-0.0047274684,-0.0032138717,0.001641165,33.300003,20.550001,-40.050003
0.14370118,0.45505372,9.857901,0.0027293828,-0.001615975,-0.0015546284,32.25,20.25,-40.5
0.17244141,0.46942386,9.85311,0.005392544,-0.0021486073,-0.0020872606,33.0,22.2,-40.95
0.1101709,0.53169435,9.82437,-0.004194836,-0.008007562,-0.0026198928,32.7,21.45,-41.850002
0.16765137,0.4981641,9.848321,-0.008455894,-0.005877033,0.0027064295,34.5,21.75,-41.100002
0.086220704,0.5029541,9.77168,-9.990428E-4,-0.0032138717,0.0032390617,32.4,21.45,-42.300003
0.081430666,0.46463382,9.81,0.0016641184,-0.0032138717,-0.0020872606,33.300003,22.2,-41.25
0.17244141,0.43110353,9.74294,0.0027293828,-0.0048117684,-4.8936397E-4,32.100002,20.7,-42.300003
0.14370118,0.46463382,9.733359,-0.001531675,0.003177715,-4.8936397E-4,34.5,19.050001,-40.65
0.1341211,0.5125342,9.829161,6.622169E-5,-5.507106E-4,-0.0015546284,33.300003,19.5,-41.7
0.119750984,0.47900394,9.77647,-0.001531675,0.0069061406,0.0011085328,33.300003,20.25,-41.7
0.10538086,0.45505372,9.7621,-4.6641054E-4,0.0037103472,-0.0015546284,32.550003,21.900002,-40.95
0.1580713,0.53169435,9.733359,-9.990428E-4,-0.005877033,0.003771694,34.050003,20.1,-41.550003
0.086220704,0.51732427,9.79084,-4.6641054E-4,0.0015798183,0.0027064295,33.75,20.7,-39.9
0.16765137,0.4981641,9.78605,-0.004194836,-0.0064096646,0.0069674873,33.600002,20.550001,-41.25
0.15328126,0.43589357,9.78605,-0.0010208758,-0.0016422402,-0.0015510782,33.600002,19.2,-41.25
0.11496094,0.57959473,9.862691,-0.003684037,-0.003240137,4.6818488E-5,33.45,21.75,-41.550003
0.1580713,0.50774413,9.82437,0.0027075498,-4.4343527E-5,-0.006344768,33.0,20.85,-42.45
0.15328126,0.5364844,9.833951,-0.0020861402,0.0031514498,-0.005812136,33.45,19.35,-41.100002
0.17244141,0.5412744,9.766891,-0.004216669,-0.003240137,4.6818488E-5,33.0,19.2,-41.7
0.14370118,0.45984375,9.75252,0.0011096532,0.0047493465,0.0016447152,33.75,19.050001,-40.350002
0.119750984,0.5412744,9.72857,-0.001553508,0.0047493465,-0.008475297,34.050003,20.7,-41.550003
0.12454102,0.39757326,9.81,0.003240182,-4.4343527E-5,5.7945075E-4,33.45,19.35,-41.850002
0.1341211,0.5029541,9.78605,5.770209E-4,-0.005903298,0.0027099797,34.800003,21.0,-42.75
0.14370118,0.47900394,9.77647,-0.0058145653,-0.00643593,-0.0015510782,33.75,21.0,-40.350002
0.14370118,0.5508545,9.78605,-0.0074124625,-0.0037727691,0.0075036692,33.0,20.550001,-40.95
0.12933107,0.5125342,9.862691,0.0064359754,0.006347243,4.6818488E-5,32.4,20.400002,-40.350002
0.119750984,0.34009278,9.70941,-4.8824353E-4,-0.0027075047,4.6818488E-5,33.0,20.25,-42.9
0.13891114,0.47900394,9.7621,-0.0047493014,0.0020861854,0.001112083,33.15,20.1,-43.800003
0.081430666,0.4406836,9.77168,-0.006347198,-0.0053706663,-0.0020837104,32.4,21.75,-40.65
0.15328126,0.46942386,9.81,-4.8824353E-4,0.0042167143,0.0016447152,33.300003,19.5,-40.5
0.19639161,0.5125342,9.75252,0.0011096532,-4.4343527E-5,-0.0042142393,33.0,20.550001,-42.15
0.11496094,0.5125342,9.7621,0.003240182,-0.0016422402,-0.0031489749,33.0,20.550001,-40.5
0.100590825,0.488584,9.8866415,0.0011096532,-0.0016422402,0.001112083,32.7,19.35,-40.350002
0.11496094,0.46463382,9.848321,-0.004216669,4.882887E-4,-0.0020837104,32.7,20.7,-39.45
0.15328126,0.5221143,9.7621,0.003240182,-4.4343527E-5,0.0016447152,32.7,21.45,-40.65
0.13891114,0.46942386,9.77168,0.0037728143,0.0010209209,-0.0020837104,34.5,20.400002,-40.65
0.10538086,0.49337405,9.79084,4.4388697E-5,-0.003240137,0.0016447152,33.45,20.7,-41.550003
0.14370118,0.43110353,9.74773,-4.8824353E-4,-0.0037727691,0.003775244,33.75,20.1,-39.9
0.119750984,0.4167334,9.81,-0.003699805,-0.0032591063,0.0027125436,33.600002,19.800001,-41.7
0.13891114,0.4742139,9.901011,0.0042896783,-6.331294E-5,-0.0010158819,33.600002,20.25,-41.7
0.15328126,0.4263135,9.79563,0.0026917818,-0.0021938419,-0.0020811465,32.550003,20.25,-40.95
0.20597169,0.48379397,9.79563,0.0010938852,0.002067216,-0.0036790431,32.550003,19.800001,-42.15
0.1580713,0.42152345,9.78605,2.8620707E-5,0.0031324804,0.0069736014,33.75,19.35,-42.75
0.07185059,0.47900394,9.77647,0.0042896783,-0.0016612096,-0.0026137787,33.600002,20.550001,-41.25
0.14370118,0.49337405,9.814791,-0.0063629663,-5.9594517E-4,-0.0010158819,32.550003,20.85,-41.25
0.081430666,0.4742139,9.7142,-0.0026345404,-0.0032591063,0.003777808,33.0,20.25,-40.95
0.14370118,0.50774413,9.79084,-0.001569276,0.0025998482,0.0021799114,32.7,19.650002,-41.100002
0.21555176,0.4981641,9.75252,0.0016265174,-0.002726474,0.001114647,33.9,20.25,-42.45
0.12933107,0.46942386,9.80521,0.0042896783,0.0047303773,0.006440969,33.9,20.25,-40.5
0.21076173,0.43110353,9.81958,0.0042896783,0.002067216,0.0027125436,32.25,20.25,-42.15
0.1580713,0.51732427,9.80521,0.0021591496,0.0031324804,0.0027125436,33.0,20.25,-42.15
0.18681154,0.45026368,9.766891,-0.0010366437,-6.331294E-5,-4.8324966E-4,32.7,20.1,-41.550003
0.12933107,0.41194338,9.77168,0.0042896783,-0.0011285774,-4.8324966E-4,33.15,20.1,-41.100002
0.16765137,0.44547364,9.82437,-0.001569276,0.0015345837,-0.0015485141,32.100002,20.400002,-41.850002
0.18681154,0.49337405,9.800421,0.009616001,0.0031324804,0.003777808,33.0,19.2,-40.050003
0.1341211,0.5843848,9.7812605,2.8620707E-5,0.0036651127,0.0069736014,33.45,19.650002,-42.75
0.07664063,0.49337405,9.79084,0.0021591496,-6.331294E-5,-0.0068748365,33.300003,19.5,-40.95
0.16286133,0.4263135,9.872271,-0.0021019082,-5.9594517E-4,-0.0042116754,33.0,20.85,-40.5
0.16286133,0.46463382,9.843531,0.0037570463,-0.006454899,0.0021799114,33.0,20.25,-41.25
0.1341211,0.5556446,9.79084,0.004822311,0.007393538,0.0021799114,31.95,20.85,-40.5
0.119750984,0.50774413,9.800421,0.005899098,-0.004843141,0.0069717276,33.0,19.800001,-40.050003
0.18681154,0.5364844,9.80521,0.029867548,-0.010169463,-0.00208302,32.4,20.1,-42.75
0.14370118,0.43110353,9.81,0.0016380402,-0.0021799796,-0.0052788137,33.300003,19.800001,-40.5
0.09101075,0.45505372,9.867481,0.009627524,-0.0075063026,0.00271067,33.15,20.7,-40.65
0.10538086,0.5029541,9.843531,0.003768569,-0.0011147151,-0.005811446,33.45,21.0,-42.75
0.1341211,0.5748047,9.7621,0.008562259,-0.0016473474,-0.008474606,34.65,21.150002,-42.15
0.14849122,0.4742139,9.78605,-0.010612501,0.001548446,-0.0052788137,33.300003,20.85,-41.7
0.14849122,0.5125342,9.877061,-0.0074167075,0.003678975,-0.004213549,33.300003,20.85,-41.7
0.16765137,0.4263135,9.77168,-0.0020903854,-0.0053757736,0.0016454055,33.15,19.050001,-41.100002
0.15328126,0.45984375,9.79563,-0.0020903854,-5.820829E-4,-0.00208302,34.050003,19.650002,-41.100002
0.13891114,0.45505372,9.7621,0.005366466,0.0020810782,0.00271067,33.9,19.800001,-41.7
0.12454102,0.5604346,9.7812605,0.0021706724,0.0010158138,0.0043085665,32.7,19.650002,-40.65
0.1101709,0.5029541,9.77168,-0.010079868,-0.04692109,-0.00208302,33.0,20.550001,-42.15
0.23471193,0.43110353,9.81,0.005899098,-0.02881159,-0.004213549,32.7,21.0,-41.850002
0.18681154,0.46463382,9.814791,0.0032359369,0.004744239,0.0011127733,35.7,20.85,-40.5
0.14849122,0.5125342,9.77168,0.01601911,0.029777955,0.005373831,32.7,20.1,-40.350002
0.15328126,0.4981641,9.7621,0.015486479,0.017527413,0.00271067,32.550003,21.6,-40.5
0.1580713,0.4981641,9.79563,0.0043012016,0.0031463427,-0.0026156523,33.0,22.2,-40.95
0.16286133,0.4406836,9.833951,0.0016380402,0.0020810782,0.0032433022,33.9,20.85,-41.7
0.12933107,0.47900394,9.73815,0.012823317,-0.003245244,0.011232786,32.550003,21.150002,-42.15
0.119750984,0.488584,9.75252,0.003768569,-0.0075063026,0.0064390954,34.350002,19.800001,-40.5
0.12933107,0.46942386,9.7812605,0.0043012016,0.0063421363,-4.851234E-4,33.45,20.7,-41.850002
0.09580079,0.44547364,9.75252,-0.0020903854,-0.01176736,0.0048411987,31.2,20.85,-40.95
0.15328126,0.43589357,9.78605,0.0027033046,-0.014963153,0.0048411987,32.550003,21.6,-42.9
0.16286133,0.4167334,9.72857,0.0016143878,-0.012328445,-0.0010139095,32.550003,20.25,-40.5
0.16765137,0.4742139,9.843531,5.491234E-4,-6.105371E-4,-0.013797084,33.9,19.800001,-42.45
0.16765137,0.56522465,9.78605,0.009603871,0.007378946,-0.0026118062,33.600002,18.150002,-42.9
0.1580713,0.40715334,9.7621,1.6491162E-5,-0.0022084338,-0.0063402317,33.9,20.85,-43.350002
0.14849122,0.48379397,9.75731,-5.1614107E-4,-0.004338962,0.0037797806,33.0,19.5,-40.5
0.16765137,0.43589357,9.814791,0.0026796523,-0.0032736983,-0.0026118062,33.15,20.1,-41.100002
0.14849122,0.5029541,9.843531,-0.004244567,-0.009665285,-4.812773E-4,32.4,20.400002,-41.100002
0.18681154,0.5029541,9.78605,0.0010817556,-0.0048715947,-0.0015465417,33.600002,21.6,-41.7
0.11496094,0.5125342,9.862691,-0.0010487733,-0.016056873,-0.002079174,34.050003,20.400002,-41.100002
0.20118165,0.5508545,9.800421,5.491234E-4,-0.0054042274,-0.007405496,33.600002,20.550001,-41.7
0.20597169,0.49337405,9.829161,0.0010817556,-0.0032736983,-0.0015465417,34.050003,19.650002,-41.100002
0.16765137,0.46463382,9.766891,-0.0021140378,-7.79049E-5,-0.004742335,34.350002,20.25,-42.15
0.10538086,0.46463382,9.81,0.0037449168,0.0041831527,0.0011166194,34.350002,20.550001,-41.25
0.1341211,0.57959473,9.80521,0.0048101814,-0.002741066,5.8398716E-4,33.0,20.550001,-41.7
0.21555176,0.5508545,9.82437,-0.010103521,-0.02244846,-0.0058075995,33.45,20.400002,-40.350002
0.12454102,0.46942386,9.75252,-0.0021140378,-0.015524239,-0.0036770706,33.75,21.45,-41.100002
0.22513184,0.4981641,9.72378,-0.009038257,-0.021383194,5.135493E-5,33.45,20.400002,-41.100002
0.17723145,0.488584,9.872271,0.0037449168,0.0015199918,5.8398716E-4,32.7,19.35,-40.65
0.16765137,0.46463382,9.690249,0.008005975,-0.008067388,-0.0010139095,34.5,20.7,-40.350002
0.20597169,0.4742139,9.814791,0.005342813,-0.01339371,0.004845045,31.650002,20.550001,-40.95
0.12933107,0.4981641,9.7812605,-0.0021140378,-0.004338962,5.135493E-5,33.15,20.400002,-41.850002
0.21555176,0.5029541,9.877061,0.0032122845,-0.0022084338,-0.0015465417,33.15,20.1,-41.550003
0.17723145,0.4406836,9.81958,0.00214702,-0.009132653,5.8398716E-4,32.25,21.6,-41.25
0.12454102,0.5125342,9.85311,-5.1614107E-4,-0.005936859,0.0027145161,32.7,20.400002,-41.550003
0.20118165,0.43589357,9.718989,-0.0047771987,-0.004338962,-0.0010139095,33.300003,20.550001,-39.75
0.14849122,0.46942386,9.85311,-0.004244567,-0.0016758016,-0.0052749673,33.15,20.400002,-42.300003
0.100590825,0.50774413,9.77168,0.0037449168,0.0015199918,0.0027145161,32.550003,19.800001,-42.9
0.10538086,0.5412744,9.77647,0.005342813,0.0063136816,0.0032471484,33.0,20.85,-41.25
0.17723145,0.45984375,9.833951,0.0016143878,0.002052624,-0.0015465417,33.45,21.45,-43.050003
0.15328126,0.4406836,9.75731,0.0064080777,-0.0032736983,5.135493E-5,32.25,19.800001,-40.050003
0.19160157,0.4406836,9.81,-0.0021140378,0.005248417,-0.0010139095,32.7,21.45,-40.65
0.12454102,0.45505372,9.78605,0.00214702,0.007911579,-0.004209703,32.7,20.7,-43.050003
0.18681154,0.5364844,9.72378,-0.0015814055,0.0036505207,-0.0015465417,33.300003,20.550001,-41.7
0.19639161,0.488584,9.75731,0.0037449168,0.019096855,-0.004742335,34.350002,20.550001,-41.25
0.1580713,0.5604346,9.7812605,-0.0031793022,0.017498959,-4.812773E-4,33.600002,20.550001,-41.7
0.20597169,0.4981641,9.72378,-0.0037119344,0.017498959,5.135493E-5,33.300003,19.2,-41.7
0.17244141,0.49337405,9.73815,-0.005842463,0.00578105,-4.812773E-4,33.300003,20.25,-42.15
0.13891114,0.46942386,9.829161,-0.0074403603,0.0047157854,0.0011166194,33.15,20.1,-41.100002
0.13891114,0.46463382,9.7621,-0.0053098314,-0.005936859,-0.0036770706,33.300003,20.85,-41.25
0.06227051,0.53169435,9.77647,-0.00264667,0.00578105,0.0016492517,31.800001,21.0,-40.65
0.19639161,0.4742139,9.843531,-5.1614107E-4,-0.0070021236,0.004845045,32.100002,20.1,-41.550003
0.12933107,0.49337405,9.7812605,0.0069407104,-0.009665285,0.0053776773,33.0,18.900002,-41.7
0.13891114,0.488584,9.74294,0.007473342,-0.009132653,0.006975574,33.600002,20.550001,-42.15
0.244292,0.5029541,9.75252,-0.0037119344,-0.008067388,-4.812773E-4,33.0,19.5,-40.95
0.18681154,0.51732427,9.7812605,0.0037449168,-0.0016758016,0.002181884,33.75,21.75,-41.850002
0.119750984,0.5221143,9.78605,0.0026796523,9.873596E-4,-0.0010139095,33.75,19.050001,-41.550003
0.17244141,0.45505372,9.7812605,0.0037485557,0.0068506915,-0.0020797658,31.2,21.6,-42.15
0.12933107,0.5125342,9.814791,-0.0021103988,0.0036548981,-0.0010145012,32.25,21.6,-41.25
0.1580713,0.48379397,9.77647,0.0026832912,0.0036548981,0.004844453,32.550003,21.6,-40.95
0.12454102,0.45026368,9.733359,0.006944349,0.009513853,0.0027139243,32.100002,20.400002,-40.65
0.16286133,0.52690434,9.75731,0.006411717,0.008448588,0.0016486599,32.100002,21.75,-41.550003
0.17723145,0.45505372,9.79563,0.0026832912,-0.00539985,0.0016486599,31.35,19.650002,-41.550003
0.20597169,0.4263135,9.77647,0.0032159234,-7.352745E-5,0.0016486599,32.550003,20.25,-42.15
0.16765137,0.488584,9.848321,-0.0015777666,-0.0048672175,-4.81869E-4,33.45,21.75,-41.550003
0.18681154,0.488584,9.81958,0.0026832912,-0.004334585,5.833955E-4,33.0,19.5,-41.25
0.16765137,0.4981641,9.75252,0.0016180268,-0.011258804,5.833955E-4,33.600002,20.25,-40.95
0.12933107,0.4406836,9.80521,-0.00477356,4.5910478E-4,-0.0010145012,32.7,21.0,-39.45
0.12454102,0.53169435,9.718989,2.0130072E-5,-0.008063011,-0.0015471334,32.4,20.7,-41.850002
0.11496094,0.50774413,9.74773,-0.010632515,-0.0016714241,-0.0042102947,33.600002,20.25,-40.050003
0.12454102,0.4406836,9.80521,-0.012763044,-0.005932482,-0.005275559,32.7,19.35,-40.350002
0.15328126,0.43110353,9.85311,-5.1250216E-4,-0.0128567,-0.0031450302,33.600002,20.85,-41.7
0.15328126,0.52690434,9.73815,-0.010099882,-0.013389333,0.0011160277,33.9,19.800001,-40.95
0.14849122,0.45984375,9.7812605,-0.010099882,-0.0048672175,-0.0031450302,32.550003,20.550001,-42.15
0.20118165,0.5508545,9.843531,-0.014893573,-0.018715657,5.076322E-5,33.300003,19.800001,-40.95
0.13891114,0.44547364,9.7621,-0.007969353,-0.010726172,0.0059097176,32.25,19.800001,-40.95
0.1820215,0.49337405,9.83874,-0.00956725,-0.014454599,-0.0042102947,33.300003,20.550001,-39.75
0.19160157,0.488584,9.872271,-0.0021103988,-0.008595643,5.076322E-5,33.0,20.25,-40.5
0.19639161,0.488584,9.766891,-0.00956725,-0.01019354,-0.0020797658,32.7,20.400002,-39.45
0.20118165,0.46942386,9.75731,-0.0042409278,0.011111749,-0.0058081914,33.75,19.35,-42.300003
0.16765137,0.47900394,9.79084,-0.0010633285,0.0068288036,-0.009533659,33.0,21.150002,-40.95
0.18681154,0.44547364,9.79563,-0.007987547,-0.0011606796,-0.011664188,33.75,20.7,-41.550003
0.4023633,-0.32093263,9.77168,-0.017042296,-0.0048891054,-0.118723266,32.25,20.85,-40.5
0.2778223,0.25387207,9.671089,-0.013846501,0.0052309074,-0.11712537,34.95,20.85,-40.95
0.24908204,0.37362307,9.77168,0.002132465,0.021742508,-0.0026094394,33.15,20.1,-41.550003
0.119750984,0.45984375,9.766891,0.009589316,0.033460416,-0.0020768072,33.0,20.25,-41.25
0.19639161,0.45505372,9.81958,0.0031977294,0.01322039,-0.0079357615,33.45,21.45,-40.65
0.1580713,0.51732427,9.83874,-0.0031938574,4.3721707E-4,-0.009001026,33.600002,21.6,-39.75
0.35925296,-0.081430666,9.83874,-0.013846501,-0.012878588,-0.069721095,33.300003,21.150002,-41.25
0.732876,0.05748047,9.70941,-0.0047917543,-0.01820491,-0.1011464,33.300003,20.25,-42.15
0.4167334,0.37362307,9.73815,0.0015998327,-0.0027585763,-0.18157387,33.600002,21.150002,-41.7
0.09580079,0.43110353,9.766891,-0.0026612252,-0.008084899,-0.19435704,31.95,21.6,-41.7
0.06706055,0.51732427,9.829161,0.004262994,-0.009150163,-0.1789107,34.5,21.45,-40.350002
0.2682422,0.57959473,9.78605,0.0069261547,-0.0038238408,-0.1703886,31.650002,21.900002,-40.5
0.29698244,0.5029541,9.78605,0.0111872135,-0.0016933118,-0.16825806,33.300003,22.2,-39.300003
-0.15328126,0.5987549,9.704619,0.010121948,0.01801408,-0.15440962,33.300003,21.150002,-40.5
-0.43589357,0.6610254,9.829161,0.01811143,0.030797254,-0.0665253,33.45,22.050001,-38.7
0.20597169,0.5029541,9.74294,0.0175788,0.013753022,-0.03616527,33.300003,22.95,-40.5
7.8844047,-1.9687061,9.484278,0.036220927,-0.03471651,-2.5970612,32.4,22.35,-42.300003
-3.5015187,-0.07664063,9.8866415,0.01811143,-0.06454392,-3.1392808,29.85,22.95,-41.7
-2.7494826,1.8729054,9.74294,0.01278511,-0.012878588,-1.6447146,29.85,26.7,-41.25
-2.308799,1.3124708,9.70941,-0.020770721,-0.06667445,-0.74296826,27.300001,31.2,-42.75
-0.12933107,0.45505372,9.939331,-0.02023809,-0.06773971,0.03094639,25.35,31.2,-40.65
0.20597169,0.05748047,9.910591,-0.009071613,-0.05071809,0.011774687,24.0,33.0,-42.300003
0.22513184,0.43110353,9.77168,0.008505251,0.0020124963,-0.004204279,23.1,32.100002,-41.7
0.18681154,0.43589357,9.81,0.007439987,0.009469347,-0.007932705,24.900002,33.0,-41.100002
0.18681154,0.5508545,9.79084,0.0010483998,0.025980948,-0.0015411177,24.150002,33.45,-42.45
0.21555176,0.49337405,9.7812605,0.003711561,0.044090442,-0.00686744,25.2,33.15,-42.15
11.524835,-1.2933106,9.79084,0.03513686,0.025448315,-1.7379222,23.400002,34.800003,-40.050003
-1.3555812,-0.57959473,9.877061,0.006907354,-0.061903372,-3.28948,24.150002,34.2,-43.350002
-3.1039455,1.2981006,9.877061,0.03513686,0.028111475,-2.1736155,18.75,35.850002,-42.9
-1.7627344,1.3891114,9.718989,0.014896838,0.028111475,-1.2132795,15.150001,37.350002,-43.5
1.0777588,0.4981641,9.79084,0.0042441934,0.0052082897,-1.128591,10.05,35.7,-43.050003
2.189048,0.1101709,9.833951,0.0101031475,-0.025151746,-1.6740063,7.65,34.65,-39.9
0.2778223,-0.364043,9.848321,0.0101031475,-0.049120195,-1.9733456,7.65,34.350002,-41.550003
0.25866213,-0.14849122,9.862691,0.007972619,-0.073088646,-2.0319352,5.8500004,32.100002,-40.95
0.0047900393,0.10538086,9.74294,0.0042441934,-0.05764231,-2.0489795,4.5,29.400002,-39.300003
-0.7041358,0.34967285,9.690249,0.0042441934,-0.05977284,-1.8721455,4.2000003,24.6,-37.65
0.12933107,0.26345217,9.83874,5.157676E-4,-0.028880173,-1.8066318,5.8500004,21.900002,-36.45
1.0777588,-0.22992188,9.872271,0.007439987,-0.029412804,-2.05111,7.05,21.75,-35.850002
0.7568262,-0.64186525,9.74773,0.0063747223,-0.06456653,-2.3962557,7.65,22.050001,-33.15
-0.34967285,-0.23471193,9.83874,-5.4949685E-4,-0.05071809,-2.4393988,8.700001,22.800001,-35.550003
-0.9388477,0.5460645,9.72857,0.023418954,0.010534612,-2.2439227,10.200001,24.6,-33.75
-1.5950831,0.76161623,9.74294,0.011168413,0.042492546,-1.9238108,9.150001,27.000002,-32.550003
-0.33530274,0.57959473,9.78605,0.006907354,0.04568834,-1.6697453,9.900001,32.100002,-32.850002
1.1639795,0.1101709,9.6758795,0.003711561,-0.003313826,-1.8620255,9.75,33.300003,-33.45
0.82388675,-0.23471193,9.85311,-0.004277922,-0.060838103,-2.178409,7.8,36.15,-33.300003
-1.0538087,0.32572266,9.74294,0.004241161,0.017455183,-1.996781,5.8500004,37.2,-32.550003
-0.86220706,0.5891748,9.72378,0.022350656,0.048347853,-1.7214102,3.0,39.75,-33.45
-0.6993457,0.3065625,9.872271,0.007969586,0.01958571,-1.6942459,0.15,41.550003,-32.100002
-0.71371585,0.26345217,9.843531,0.006904322,0.02864046,-1.5674794,-4.9500003,44.7,-34.5
0.6945557,0.100590825,9.857901,0.010100115,-0.0022522095,-1.6585596,-9.450001,44.7,-34.95
0.028740235,0.14849122,9.78605,0.012763277,-0.008111164,-1.8556335,-10.8,46.350002,-34.050003
0.6849756,-0.06706055,9.8866415,0.0074369544,-0.053384904,-2.0665557,-12.750001,45.9,-33.9
-0.49337405,0.3161426,9.81958,0.01595907,-0.0150353825,-2.1288738,-16.5,47.25,-35.850002
-0.2682422,0.26345217,9.690249,0.012763277,0.0020088484,-1.9674863,-20.1,46.050003,-34.5
0.2921924,0.09580079,9.862691,0.013828541,0.024912033,-2.0670884,-23.7,44.850002,-36.75
-0.3784131,0.5364844,9.800421,-1.9896775E-5,-0.053917535,-2.0947852,-27.000002,43.800003,-34.65
-1.7483643,0.56522465,9.74294,0.010100115,-0.016100649,-1.5871868,-29.250002,43.350002,-36.15
-0.45984375,0.038320314,9.632769,0.014361173,0.028107826,-1.2841191,-32.100002,42.15,-37.050003
0.53169435,-0.20118165,9.68067,5.1273545E-4,-6.543128E-4,-1.6409826,-34.800003,40.050003,-36.75
0.06706055,0.09101075,9.800421,0.012230644,0.008933067,-1.9903895,-36.300003,37.2,-35.25
-0.6849756,0.39278322,9.924961,0.00637169,0.016922552,-1.9115598,-38.4,36.15,-34.95
-0.56522465,0.8095166,9.80521,0.010100115,0.039825737,-1.6745385,-40.800003,34.800003,-35.25
0.09101075,0.5364844,9.766891,0.01595907,0.032368883,-1.5765342,-42.300003,31.650002,-35.850002
0.5556446,0.32093263,9.699829,0.022883289,0.02171624,-1.8961135,-43.95,30.6,-34.65
0.20118165,-0.2682422,9.79084,0.025013817,0.0073351706,-2.2433896,-46.350002,25.500002,-34.65
-0.23471193,-0.43589357,9.901011,0.029807508,-0.01876381,-2.283337,-46.2,23.25,-36.15
-1.101709,0.52690434,9.881851,0.020220129,-0.024622764,-1.9270061,-46.5,19.800001,-35.25
-1.0633887,0.3305127,9.81958,0.017556967,0.0014762161,-1.3245991,-46.800003,16.2,-36.9
0.12933107,0.12454102,9.843531,0.012765703,-0.0027819232,-1.2787931,-50.100002,15.000001,-36.75
0.7807764,-0.39278322,9.77647,0.019157289,-0.0134345675,-1.7373894,-49.800003,12.900001,-35.850002
0.4406836,-0.53169435,9.74773,0.026614139,-0.031544063,-2.1208847,-49.500004,10.650001,-36.45
-1.5088624,0.13891114,9.74294,0.021287818,-0.03260933,-2.0463161,-47.4,9.450001,-36.300003
-1.4992822,0.44547364,9.72378,0.016494127,0.0014791347,-1.2755973,-48.9,6.3,-36.45
-0.27303225,0.05748047,9.80521,0.006906748,0.011066515,-0.9677359,-47.4,2.7,-35.550003
1.0729688,-0.6562354,9.800421,0.004776219,-0.011304039,-1.228193,-47.550003,2.8500001,-36.45
1.1783496,-0.67539555,9.82437,0.0132983355,-0.018760892,-1.7096926,-47.4,0.6,-36.300003
0.6227051,-0.43589357,9.867481,0.027146772,-0.043794602,-2.4756176,-45.9,-0.15,-36.9
-0.9053174,-0.23471193,9.704619,0.027146772,-0.056577776,-2.5544472,-45.9,-0.15,-36.9
-1.7723145,0.38320315,9.78605,0.018092023,-0.019293522,-2.0090318,-45.45,-6.3,-36.15
-1.8633252,0.7664063,9.81,0.010102541,0.012664412,-1.1158077,-45.300003,-8.85,-37.5
0.1341211,0.42152345,9.74294,0.004243587,0.04728551,-0.7717272,-43.65,-9.150001,-39.15
1.4226416,-0.023950197,9.80521,0.002113058,0.0062728245,-1.2100836,-43.800003,-9.3,-37.350002
0.8861573,-0.27303225,9.83874,0.015961496,-0.022489317,-1.816219,-43.350002,-10.200001,-36.300003
-0.043110352,-0.30177248,9.7142,0.017559392,-0.026217742,-2.2082362,-41.100002,-11.400001,-37.350002
-1.3555812,-0.023950197,9.77168,0.013830967,-0.01663036,-2.0585666,-41.25,-11.85,-38.25
-2.1507277,0.51732427,9.75731,0.011700438,-1.1876202E-4,-1.4689428,-38.25,-15.000001,-37.050003
0.28261232,0.41194338,9.79084,0.009037277,0.045154978,-0.89476526,-38.550003,-14.250001,-37.5
2.2225783,-0.2921924,9.77647,0.017559392,-0.00917351,-1.7027683,-38.4,-18.6,-37.350002
1.465752,-0.37362307,9.905801,0.019157289,-0.025152477,-2.2668257,-37.800003,-15.6,-37.050003
-1.2549903,-0.31135255,9.690249,0.037799418,-0.055512514,-2.4628344,-36.0,-16.2,-37.65
-1.8824854,0.15328126,9.857901,0.027679404,-0.05071882,-1.7592274,-37.350002,-20.85,-38.100002
-0.9244776,0.41194338,9.78605,0.012759638,-0.0017239547,-0.9954318,-34.350002,-21.300001,-39.300003
1.4082716,-0.21076173,9.867481,0.017020695,-0.0054523805,-1.1962341,-33.75,-22.050001,-37.95
0.9196875,-0.3305127,9.82437,0.038325988,-0.037942946,-1.8833297,-32.4,-23.1,-40.350002
-0.37362307,-0.28740236,9.733359,0.03939125,-0.04646506,-2.1778753,-30.900002,-25.050001,-38.100002
-1.3939015,-0.244292,9.74773,0.040456515,-0.07043351,-2.0505762,-30.6,-24.300001,-39.75
-1.4801221,0.3065625,9.78605,0.036195457,-0.04593243,-1.4087545,-30.45,-25.500002,-38.25
0.3784131,0.27303225,9.72857,0.0063680513,0.0041349996,-0.99010545,-27.750002,-26.250002,-39.15
1.4034815,-0.26345217,9.80521,0.014357534,-0.012376598,-1.6777337,-27.750002,-26.550001,-39.15
-0.52690434,-0.047900394,9.74773,0.032999665,-0.054987177,-2.0729468,-27.6,-26.7,-38.550003
-1.6477735,-0.086220704,9.77647,0.022879649,-0.07629246,-1.586121,-26.250002,-27.000002,-39.300003
-1.3603711,0.364043,9.704619,0.009563845,-0.03581242,-1.002356,-24.900002,-27.000002,-38.850002
0.9436377,-0.07185059,9.6615095,0.010096476,0.01851607,-0.9368422,-22.800001,-27.300001,-35.7
0.44547364,-0.0047900393,9.867481,0.017020695,-0.012376598,-1.2995648,-22.800001,-28.800001,-38.850002
-1.2070899,0.009580079,9.857901,0.021281753,-0.024094509,-0.9746591,-23.1,-28.35,-40.050003
0.5221143,0.1101709,9.81,5.0909654E-4,0.0062655285,-0.635905,-20.7,-28.800001,-37.350002
0.8334668,0.019160157,9.766891,0.018618591,-0.0033218514,-1.1126109,-19.800001,-29.7,-39.300003
-1.8010547,-0.033530276,9.75731,0.011694374,-0.016105026,-0.8308484,-20.400002,-29.400002,-38.550003
-0.82388675,0.05748047,9.833951,0.0026396255,0.034495037,-0.19541816,-19.2,-28.95,-38.25
0.86220706,-0.038320314,9.872271,-0.0042845933,0.025972921,-0.36053416,-20.550001,-29.250002,-39.45
-0.6322852,0.086220704,9.843531,0.0010417288,-0.002256587,-0.41859108,-19.2,-28.95,-37.5
-2.9410841,1.5040723,9.833951,-0.013339342,-0.049660858,0.08101796,-20.1,-29.400002,-39.75
-0.043110352,0.009580079,9.80521,0.006900683,-0.002256587,0.0016557605,-17.7,-30.750002,-39.300003
1.3268409,-0.086220704,9.857901,-0.004817226,0.016918173,-0.0047358265,-18.75,-30.750002,-37.65
-0.047900394,0.06706055,9.79084,0.0020930443,0.0025203223,0.0011253965,-20.1,-28.800001,-38.850002
-0.019160157,0.07185059,9.77168,0.0031583088,0.0025203223,-0.0015377647,-19.650002,-30.6,-39.9
-0.047900394,0.100590825,9.766891,-0.0027006457,0.0035855868,-4.7250025E-4,-20.550001,-30.6,-38.7
-0.028740235,0.033530276,9.78605,-0.0016353813,0.0046508512,0.002190661,-20.1,-30.750002,-39.300003
0.047900394,0.05748047,9.77168,-0.005363807,0.0030529546,0.0011253965,-18.900002,-27.900002,-38.25
-0.09580079,0.15328126,9.73815,-3.748457E-5,-6.7547103E-4,6.0131977E-5,-19.35,-30.750002,-38.550003
-0.009580079,0.119750984,9.79563,0.0026256766,0.0035855868,0.0037885576,-20.7,-29.400002,-38.550003
-0.033530276,0.047900394,9.75252,4.9514766E-4,0.0035855868,0.0037885576,-18.0,-29.7,-38.850002
-0.05269043,-0.0047900393,9.814791,0.006354102,0.0030529546,-0.007929351,-19.800001,-30.750002,-38.850002
-0.023950197,0.043110352,9.80521,0.0020930443,-0.0012081033,0.0016580287,-19.2,-28.95,-38.25
0.033530276,0.0047900393,9.69504,4.9514766E-4,3.8979342E-4,-0.0031356614,-19.35,-31.050001,-39.300003
0.0047900393,0.07664063,9.6758795,0.0031583088,0.0025203223,-4.7250025E-4,-19.050001,-30.45,-39.75
-0.019160157,0.07185059,9.77168,-0.0021680135,-0.0012081033,0.0037885576,-20.400002,-29.7,-38.850002
-0.07664063,0.16286133,9.862691,-0.007494336,9.2242565E-4,0.0043211896,-18.45,-30.750002,-38.850002
0.023950197,0.1341211,9.7621,-0.0016353813,-0.0022733677,-0.0010051324,-21.150002,-30.750002,-39.300003
-0.06227051,0.05748047,9.766891,-0.0016353813,-6.7547103E-4,0.004853822,-21.150002,-30.750002,-39.300003
-0.0047900393,0.033530276,9.83874,0.0047562057,-6.7547103E-4,5.9276423E-4,-19.95,-29.550001,-37.95
0.0047900393,0.11496094,9.85311,-3.748457E-5,-0.004936529,0.0027232931,-18.0,-29.400002,-39.300003
-0.014370117,0.12454102,9.77168,-3.748457E-5,0.0030529546,0.0069843507,-20.25,-30.6,-39.45
-0.019160157,0.038320314,9.766891,0.0015604121,-1.428388E-4,0.0064517185,-20.25,-31.650002,-38.25
0.0,-0.0047900393,9.6758795,0.013810953,-0.0038712644,-0.002070397,-19.050001,-31.500002,-38.850002
0.06706055,0.100590825,9.72378,-0.017614348,-0.07311346,0.0043211896,-19.35,-29.400002,-38.850002
-0.023950197,0.119750984,9.82437,0.009017264,-0.03902499,0.0011253965,-19.35,-29.400002,-38.850002
0.0,0.086220704,9.857901,0.010612128,0.003581939,-0.002602536,-19.35,-30.750002,-39.300003
0.009580079,0.07185059,9.83874,-0.0037689423,-6.791188E-4,-0.010592019,-18.300001,-29.85,-40.65
0.06227051,0.023950197,9.685459,-0.0011057812,-0.013462292,-0.0010046394,-18.75,-30.45,-38.550003
0.07185059,0.009580079,9.79563,0.011677392,-0.010266499,0.0027237863,-21.0,-29.85,-40.350002
0.081430666,0.09101075,9.7812605,0.026058463,0.024354596,-0.0031351682,-20.550001,-29.250002,-40.350002
0.033530276,0.07664063,9.80521,0.03724374,0.044061985,6.0625054E-5,-20.550001,-28.95,-38.7
-0.07664063,0.119750984,9.766891,0.018601611,0.046725146,-0.004733065,-20.1,-29.400002,-39.300003
-0.100590825,0.10538086,9.766891,0.008481599,0.015299848,-0.0036678005,-20.550001,-30.300001,-41.100002
-0.028740235,0.023950197,9.7142,0.0010247477,-0.012929659,-0.0031351682,-19.35,-30.750002,-37.65
0.07185059,0.1101709,9.81,0.009546863,0.013701951,-4.7200717E-4,-19.35,-29.1,-38.850002
-0.047900394,0.11496094,9.79084,0.009014231,0.0147672165,6.0625054E-5,-19.95,-30.6,-39.45
-0.09101075,0.12933107,9.82437,0.010079496,-0.00334228,-0.0031351682,-20.7,-30.150002,-39.300003
-0.05748047,0.06227051,9.733359,4.921155E-4,-0.026245466,-0.0052656974,-19.650002,-28.95,-40.350002
0.028740235,0.047900394,9.7621,0.0036879089,-0.03157179,-0.010059387,-20.7,-30.750002,-39.300003
0.086220704,0.100590825,9.82437,-0.005366839,-0.009733867,-0.012189916,-19.650002,-30.6,-40.65
0.119750984,0.1101709,9.833951,0.0047531733,0.0067777326,-0.028701516,-20.25,-30.900002,-39.45
5.0678616,0.13891114,9.881851,0.034580577,0.017963009,-2.152839,-19.95,-29.250002,-38.25
-0.1101709,-0.07185059,9.992022,0.029254256,0.012104055,-2.9496567,-19.35,-30.750002,-39.75
-2.2369483,-0.51732427,9.829161,0.030319521,0.029148286,-2.4196877,-19.800001,-30.45,-39.75
-3.6260598,-0.4263135,9.833951,0.03351531,0.042996723,-1.3533578,-16.2,-30.900002,-38.7
-0.17723145,0.36883304,9.637559,0.021797406,0.02062617,-0.0020699038,-17.400002,-31.500002,-38.100002
-0.023950197,0.12933107,9.74773,0.008481599,-0.0017443832,-0.004200433,-14.1,-30.900002,-38.25
-0.07664063,0.12454102,9.75731,0.0047531733,-6.791188E-4,-0.012722548,-14.85,-31.35,-39.9
6.744375,-0.4981641,9.881851,-0.006972014,-0.0374395,-0.51019984,-15.450001,-31.35,-40.350002
1.9160157,0.5221143,9.877061,0.037769094,0.029672164,-2.4708192,-15.900001,-30.300001,-39.15
-1.5471827,0.06227051,9.79084,0.03883436,0.04298797,-2.2529726,-14.400001,-31.500002,-39.300003
-2.6057813,-0.6658155,9.877061,0.043095417,0.034465853,-1.7171445,-12.750001,-32.7,-39.45
-1.9016455,-0.14370118,9.584868,0.011137483,-0.075256385,-0.40154287,-12.6,-32.4,-39.75
2.327959,-0.7376661,9.82437,-0.0080372775,-0.07685428,-0.44788188,-12.750001,-33.0,-39.45
0.728086,-0.22992188,9.72378,0.014333275,-0.043831084,-1.3405735,-12.3,-32.850002,-38.550003
-1.096919,0.31135255,9.733359,0.0153985405,-0.028384749,-1.0295163,-11.1,-31.800001,-38.550003
0.5125342,-0.37362307,9.7142,0.0026153666,-0.03797213,-0.95281726,-10.650001,-34.350002,-39.9
0.40715334,-0.12933107,9.74773,0.021790128,-0.02146053,-1.2015566,-10.200001,-33.0,-39.45
-0.67539555,0.18681154,9.766891,0.02445329,-0.00920999,-1.1466954,-9.75,-32.850002,-40.050003
0.28261232,-0.043110352,9.72857,0.0345733,-0.00920999,-1.08491,-8.25,-34.350002,-41.100002
0.32093263,-0.05269043,9.7621,0.019659597,-0.00920999,-1.2084807,-7.65,-34.5,-39.300003
1.096919,-0.119750984,9.77168,0.0153985405,-0.008144725,-1.4518937,-6.9,-36.45,-39.45
1.710044,0.0047900393,9.79563,0.012202746,-0.03264581,-1.9019679,-7.65,-35.25,-39.75
0.12454102,0.35925296,9.80521,0.030844875,0.010497402,-2.324878,-5.7000003,-35.25,-40.5
-0.8669971,0.37362307,9.829161,0.04149752,0.0120953,-2.1592293,-4.3500004,-35.550003,-39.300003
-0.45984375,0.07185059,9.73815,0.019126967,-0.034776337,-1.6660118,-3.7500002,-36.45,-38.25
0.37362307,0.09580079,9.77647,0.02285539,-0.03264581,-1.6447066,-1.5,-37.050003,-39.15
-0.4263135,0.11496094,9.666299,0.022322759,-0.017732106,-1.6377823,-0.90000004,-35.850002,-38.100002
0.8813672,-0.10538086,9.77168,0.010072217,-0.05874479,-1.5451044,0.3,-37.050003,-39.45
2.3375392,0.023950197,9.848321,0.0074090566,-0.07472375,-1.9717427,1.2,-36.45,-38.7
-0.17723145,0.081430666,9.72378,0.021257494,-0.025188956,-2.32328,2.4,-37.95,-40.95
-0.9388477,-0.2682422,9.77168,0.020192232,-0.036374234,-2.1373913,3.45,-37.2,-38.850002
0.28740236,-0.23950197,9.82437,0.02445329,-0.05874479,-2.0143533,6.3,-36.75,-37.95
-0.4981641,-0.081430666,9.72857,0.013268012,-0.04542898,-2.1192818,7.65,-34.95,-38.7
-0.1101709,0.06227051,9.800421,0.0042132633,-0.06513637,-1.9472417,8.700001,-35.4,-39.15
1.5088624,-0.2921924,9.833951,0.0042132633,-0.07206059,-2.0420501,10.950001,-35.550003,-40.050003
-0.74724615,-0.05748047,9.81,0.023920655,-0.024123691,-2.3296716,10.950001,-34.5,-38.550003
-1.590293,0.014370117,9.800421,0.01060485,-0.04489635,-1.8492373,13.05,-34.95,-39.45
0.3305127,0.019160157,9.74294,0.0010174699,-0.042765822,-1.5807906,13.650001,-32.4,-38.550003
2.1411476,-0.27303225,9.74294,0.013800643,-0.03797213,-1.8449763,15.150001,-32.7,-37.5
0.7568262,-0.41194338,9.80521,0.025518551,-0.028384749,-2.2774737,15.000001,-32.4,-40.5
-2.2656887,0.4167334,9.766891,0.021790128,-0.019862633,-2.004766,15.150001,-31.95,-39.15
-0.9244776,0.46463382,9.72378,0.0047458955,-0.03797213,-1.415142,17.25,-32.25,-38.7
1.695674,0.06227051,9.74773,0.009539586,-0.04436372,-1.3943694,18.900002,-29.550001,-40.350002
2.2656887,-0.2778223,9.690249,0.013800643,-0.025721587,-1.9791996,19.95,-29.85,-39.15
-1.7244141,0.244292,9.82437,0.015931172,-0.026786853,-2.133663,19.5,-27.6,-39.9
-1.9064356,0.6227051,9.800421,0.016996436,-0.028917383,-1.2734619,22.050001,-29.400002,-39.75
1.6381935,0.0047900393,9.766891,0.0074090566,-0.035841603,-1.0449626,23.85,-27.000002,-39.300003
5.3217335,-0.6514453,9.924961,0.019659597,-0.024656326,-2.1586967,23.400002,-26.7,-38.850002
0.06706055,-0.98195803,9.766891,0.046823844,-0.012405782,-3.0769546,23.25,-27.6,-39.15
-4.641548,0.8430469,9.6758795,0.020724863,-0.050755303,-2.256701,23.550001,-25.800001,-39.45
-1.3028907,1.0011182,9.8866415,0.012202746,-0.058212157,-1.2100787,26.1,-25.050001,-40.050003
3.3338673,-0.033530276,9.79563,0.020192232,-0.020927899,-1.6116834,25.800001,-24.0,-38.100002
1.6238233,-0.09101075,9.80521,0.013800643,-0.034776337,-2.2843978,26.400002,-24.150002,-41.550003
-1.3891114,0.24908204,9.79563,0.012202746,-0.04755951,-2.1475115,27.750002,-22.5,-39.45
-0.8669971,0.4981641,9.74294,0.009526243,-0.0433145,-1.6015611,28.500002,-21.300001,-40.5
1.101709,0.2682422,9.877061,0.016450461,-0.035325017,-1.5488305,27.45,-19.95,-39.75
1.6334034,0.5125342,9.843531,0.01591783,-0.015084995,-1.9887847,28.800001,-18.900002,-41.25
1.0585986,0.39278322,9.72857,0.007928347,-0.012954466,-2.295581,30.900002,-19.5,-39.75
-0.8430469,0.41194338,9.651929,0.016983096,0.037112966,-2.239122,30.000002,-17.7,-39.45
-1.1304493,0.40715334,9.7142,0.005797818,0.006752926,-1.8694751,30.900002,-17.25,-39.300003
0.20118165,0.244292,9.608819,0.009526243,-0.002834454,-1.6889127,31.95,-15.750001,-40.050003
1.1687696,0.009580079,9.68067,0.019113623,-0.016682891,-1.8662794,32.4,-13.650001,-39.9
1.949546,-0.44547364,9.79563,0.016450461,-0.0284008,-2.1927829,32.25,-12.750001,-40.5
-0.5029541,0.19639161,9.718989,0.021776784,-0.019878685,-2.1757388,33.15,-11.55,-40.350002
-1.6860938,0.15328126,9.953702,0.00633045,-0.015617628,-1.6644117,34.350002,-12.150001,-39.300003
-0.57001466,-0.5604346,9.766891,0.015385198,-0.04544503,-1.2713292,34.5,-10.200001,-40.65
2.816543,-1.22625,9.862691,0.010591508,-0.0763377,-1.7086202,33.9,-8.700001,-39.300003
4.9337406,-2.1363575,9.85311,-0.009115885,-0.19511469,-2.4404569,35.7,-8.700001,-40.050003
0.76161623,0.6322852,9.422008,0.00153676,-0.12374197,-3.211176,33.45,-6.4500003,-40.65
-3.755391,1.4753321,10.178833,0.051071554,0.15269415,-2.6860003,35.4,-4.8,-40.65
-2.5770411,1.0394385,9.862691,0.03083153,0.07386459,-1.2542849,35.7,0.15,-40.95
0.26345217,0.45026368,9.843531,0.011656772,0.020068731,-0.85800654,35.850002,1.95,-41.100002
1.3986914,-0.364043,9.766891,0.01591783,0.004622397,-1.2239249,36.45,3.45,-40.350002
0.9148975,-0.028740235,9.800421,0.017515726,0.016340306,-1.6329864,36.0,3.9,-38.550003
-0.53169435,0.74724615,9.829161,0.021244153,0.028590847,-1.6436391,35.4,5.4,-40.350002
-1.7148341,0.78556645,9.69504,0.013787301,-0.017748157,-1.2154027,36.0,6.6000004,-39.300003
-1.1543995,0.7185059,9.766891,0.010591508,-0.027335538,-0.7972865,35.100002,8.85,-41.550003
-0.92926764,0.56522465,9.718989,0.00367396,-0.035316993,-0.27690586,36.300003,10.05,-38.550003
2.931504,-0.6466553,9.73815,0.0052718567,-0.013479073,-0.64548737,35.25,10.35,-39.75
1.6908839,-0.2778223,9.814791,0.019120295,-0.011348544,-1.6548253,35.100002,11.85,-40.65
-3.0704153,1.6860938,9.72857,0.013261341,-0.033719096,-1.2404375,36.300003,11.1,-40.5
-0.56522465,0.60833496,9.877061,0.0010107988,-0.0321212,-0.47664297,35.7,14.1,-40.5
0.85741705,0.23471193,9.7621,0.0015434311,0.0158157,-0.80367917,34.65,15.750001,-40.5
-1.9351759,1.1496094,9.81958,-0.011239743,0.0024998938,-0.3104617,34.65,18.900002,-40.5
0.119750984,0.5556446,9.814791,0.0052718567,-0.028925408,0.00166079,32.25,17.550001,-40.95
0.36883304,0.12933107,9.685459,0.0026086955,-0.05342649,-0.012187648,32.7,18.300001,-40.350002
2.9794044,-0.12933107,9.73815,-0.0048481557,0.025935713,-1.0913005,33.600002,18.150002,-42.15
-4.248765,2.078877,9.992022,-0.011239743,-0.016142234,-0.11125724,33.300003,18.900002,-39.300003
0.028740235,0.50774413,9.85311,0.0047392244,-0.042773847,-0.0105897505,32.7,20.1,-41.550003
2.5243506,-1.2358302,9.642349,-0.008043949,0.061089437,-0.44734818,33.300003,18.45,-40.5
-2.304009,2.0309765,9.881851,-0.006978685,0.056828383,-0.31578803,32.7,19.650002,-41.550003
0.19160157,0.5125342,9.81,-0.011239743,0.010489377,-0.005263429,31.800001,20.400002,-41.100002
0.10538086,0.5125342,9.814791,0.00846765,-0.014544338,0.0011281577,32.100002,20.1,-40.350002
0.081430666,0.49337405,9.80521,-0.0027176267,-0.009218015,-0.0020676355,33.600002,18.150002,-39.75
0.05748047,0.5029541,9.81,-0.006978685,-0.017207498,0.0032586867,32.25,21.6,-41.25
0.14370118,0.52690434,9.82437,-5.4465607E-5,-0.00548959,0.00645448,32.25,19.800001,-39.75
0.14849122,0.5748047,9.75731,-5.8709783E-4,-0.014011705,0.0011281577,31.650002,20.85,-41.25
0.06227051,0.5029541,9.77168,0.0010107988,-0.01774013,0.0027260545,29.7,20.400002,-41.550003
0.11496094,0.5364844,9.69504,0.005804489,-0.011348544,-0.005263429,31.800001,20.7,-39.9
0.081430666,0.47900394,9.704619,-0.006978685,3.6936486E-4,0.004856583,31.95,20.25,-40.050003
0.12933107,0.5125342,9.766891,-0.001113059,0.02221531,-0.001003456,31.35,20.400002,-40.350002
0.07185059,0.49337405,9.75252,-0.009102543,0.034465853,0.008051292,31.35,20.7,-38.7
-0.014370117,0.4981641,9.833951,-0.0027109557,0.025943737,5.9444073E-4,32.7,20.1,-40.350002
0.09101075,0.5460645,9.78605,4.8483768E-4,0.011030035,-0.0015360882,32.7,19.35,-41.100002
0.10538086,0.46942386,9.7142,-5.804268E-4,0.017954253,-0.0015360882,32.4,19.050001,-40.65
0.07664063,0.51732427,10.0063925,0.0031479988,-0.00920999,0.0043228664,33.0,20.550001,-40.5
0.047900394,0.5508545,9.479487,0.016463805,-0.042233188,0.005920763,32.4,21.0,-40.350002
0.26345217,0.6658155,9.857901,0.020192232,-0.06993006,0.001127073,32.25,20.550001,-40.5
0.14370118,0.5843848,9.74294,0.0052785277,-0.04809214,-0.0026013528,32.550003,20.550001,-40.050003
0.100590825,0.47900394,9.81958,-0.0021783235,-0.031580545,6.1808474E-5,32.25,20.550001,-40.5
0.1580713,0.46463382,9.800421,4.8483768E-4,-0.031580545,0.0027249695,31.2,19.5,-40.050003
0.14849122,0.52690434,9.7812605,4.8483768E-4,-0.018797372,0.008583925,32.25,19.800001,-40.5
0.15328126,0.5508545,9.75731,0.003680631,-0.009742622,6.1808474E-5,32.100002,19.650002,-40.65
0.13891114,0.5604346,9.814791,-0.0021783235,-0.01613421,0.005388131,33.0,20.85,-40.050003
0.15328126,0.53169435,9.7812605,-0.0037762201,-0.00920999,-4.7082375E-4,32.25,20.25,-40.5
0.27303225,0.5412744,9.70941,-0.0064393813,-0.0113405185,6.1808474E-5,31.95,19.800001,-40.5
0.1820215,0.488584,9.81,0.0020827344,-0.012405782,5.9444073E-4,29.85,20.85,-38.850002
0.100590825,0.488584,9.7812605,0.009006953,-0.003351035,5.9444073E-4,32.100002,19.650002,-41.550003
0.1341211,0.51732427,9.829161,0.00581116,9.1002276E-4,5.9444073E-4,32.4,21.0,-40.65
0.16286133,0.5604346,9.77168,-5.804268E-4,-0.006014196,0.0069860276,32.100002,20.1,-41.100002
0.1341211,0.5843848,9.81,-0.0027109557,-0.006014196,6.1808474E-5,30.900002,18.150002,-40.95
0.1580713,0.45505372,9.78605,-0.0021783235,-0.010807886,6.1808474E-5,31.35,19.35,-41.850002
0.1580713,0.50774413,9.77647,-4.7794543E-5,-0.009742622,0.0043228664,31.050001,20.1,-41.550003
0.16286133,0.46463382,9.82437,-0.0038016918,-0.0044469424,0.003794376,33.45,19.35,-40.350002
0.18681154,0.5604346,9.79084,-0.004334324,-0.0033816781,0.0011312149,31.95,20.550001,-41.25
0.15328126,0.56522465,9.78605,-0.0059322203,-0.0012511492,0.0032617438,32.550003,21.900002,-39.75
0.17244141,0.48379397,9.75731,-0.0027364274,-1.8588477E-4,0.0027291116,31.050001,20.1,-41.100002
0.11496094,0.5460645,9.872271,-0.0027364274,0.0030099086,0.008588066,31.050001,20.400002,-41.100002
0.10538086,0.49337405,9.69504,-0.0075301174,3.4674746E-4,0.0011312149,31.650002,22.2,-42.15
0.13891114,0.5029541,9.7621,0.0015246305,8.793797E-4,0.006990169,31.95,18.45,-41.25
0.17723145,0.5029541,9.81958,-0.006464853,0.0030099086,0.0011312149,31.650002,19.5,-41.25
0.13891114,0.49337405,9.546548,-7.3266216E-5,0.0035425408,-0.0057930043,32.25,21.150002,-41.7
-0.086220704,-0.10538086,9.963282,-0.013389072,0.028576255,0.027762827,31.800001,19.35,-39.9
0.13891114,0.60354495,9.239985,0.0031225272,-0.0055122077,0.006990169,30.750002,20.1,-41.100002
-0.100590825,0.2778223,9.958491,-6.0589844E-4,0.0056730695,0.005392273,32.7,20.1,-41.850002
0.6179151,0.5460645,9.68067,-0.008062749,0.004607805,-0.008988798,32.25,20.85,-40.5
0.21076173,0.5221143,9.924961,0.0036551594,0.0019446441,6.5950444E-5,33.0,20.550001,-40.050003
0.17244141,0.44547364,9.77168,-0.0069974856,0.0030099086,-0.004195107,31.95,19.800001,-41.25
0.19639161,0.5221143,9.74773,0.0041877916,0.0051404377,-0.004195107,31.2,21.900002,-41.25
0.09101075,0.56522465,9.881851,-6.0589844E-4,0.01526045,-0.0057930043,32.100002,19.35,-39.9
0.12454102,0.5412744,9.651929,0.002589895,0.0051404377,0.003794376,32.25,20.85,-41.7
0.12933107,0.4981641,9.81958,-0.0016711629,0.006738334,-0.006325636,30.750002,21.45,-40.350002
0.19639161,0.45505372,9.77647,-0.008595382,0.0019446441,-0.0057930043,32.100002,20.400002,-42.300003
0.244292,0.5460645,9.891431,0.002589895,0.004607805,0.0032617438,30.6,19.5,-42.15
-0.043110352,0.6610254,9.7621,-0.0059322203,0.012064656,-0.0132498555,32.7,20.1,-41.100002
0.1101709,0.5029541,9.74294,-0.016052235,0.006738334,-4.6668178E-4,31.800001,21.0,-41.850002
0.19160157,0.5364844,9.78605,-0.014986969,0.004607805,0.009120698,31.95,21.150002,-40.95
0.15328126,0.4406836,9.77168,-0.008062749,0.0014120119,0.0032617438,32.100002,20.1,-41.850002
0.13891114,0.49337405,9.80521,-0.0048669563,0.004607805,0.0011312149,30.750002,20.7,-41.100002
0.14849122,0.48379397,9.78605,-0.004334324,0.0035425408,-0.004195107,33.15,19.050001,-39.9
0.119750984,0.488584,9.7812605,-0.0112585435,0.0040751733,-9.99314E-4,31.650002,19.2,-40.95
0.07185059,0.46942386,9.7812605,-0.0027364274,0.0035425408,-0.0020645785,31.35,20.7,-41.100002
0.14849122,0.5125342,9.78605,-7.3266216E-5,-0.0012511492,0.0011312149,32.100002,21.45,-39.9
0.19160157,0.51732427,9.73815,-0.0027364274,0.0035425408,0.005392273,32.4,21.0,-41.100002
0.1101709,0.50774413,9.73815,-0.0069974856,0.0040751733,-0.0015319462,31.050001,20.400002,-40.65
0.038320314,0.47900394,9.7812605,0.0041877916,-1.8588477E-4,0.006990169,32.100002,20.7,-41.550003
0.081430666,0.45505372,9.7621,-6.0589844E-4,0.0035425408,6.5950444E-5,31.050001,21.0,-39.45
0.12454102,0.42152345,9.79563,0.0020572627,-0.0033816781,0.0048596403,31.650002,20.25,-40.050003
0.13891114,0.488584,9.80521,-0.0027364274,3.4674746E-4,-9.99314E-4,31.800001,22.050001,-41.850002
0.16286133,0.488584,9.79084,-0.0032690596,-1.8588477E-4,-0.0020645785,31.050001,20.400002,-41.550003
0.16286133,0.46463382,9.814791,-0.0048669563,-0.0039143106,-0.0036624752,32.100002,18.6,-40.350002
0.13891114,0.4167334,9.75252,-7.3266216E-5,-1.8588477E-4,-4.6668178E-4,33.15,20.1,-39.45
0.07664063,0.4023633,9.733359,-6.0589844E-4,0.0035425408,-0.0073909005,31.800001,20.400002,-40.65
0.10538086,0.4167334,9.78605,-0.0038016918,8.793797E-4,-0.0025972107,31.800001,19.650002,-40.350002
0.18681154,0.5029541,9.73815,-0.0016711629,-0.0033816781,-0.003129843,31.800001,20.1,-41.100002
0.17244141,0.47900394,9.75731,-7.3266216E-5,-0.004979575,0.008588066,31.800001,21.0,-41.850002
0.14849122,0.4981641,9.75731,9.919982E-4,-0.002849046,0.0011312149,31.050001,20.400002,-40.350002
0.11496094,0.488584,9.73815,-7.3266216E-5,-0.0033816781,6.5950444E-5,31.35,20.400002,-42.300003
0.1341211,0.45505372,9.81,0.0036551594,-0.002849046,-9.99314E-4,31.650002,21.150002,-40.95
0.1580713,0.5460645,9.857901,-0.0032648141,0.0051455447,-0.0031305333,31.650002,20.25,-40.5
0.20597169,0.43589357,9.74773,0.0031267726,-0.003909203,-0.0041957977,31.95,21.150002,-41.25
0.1341211,0.46942386,9.766891,-0.0016669175,-1.8077763E-4,0.0037936857,31.2,19.800001,-40.95
0.1101709,0.46942386,9.74773,0.0031267726,0.0024823835,-0.002597901,30.900002,20.25,-40.95
0.12933107,0.49337405,9.82437,0.0025941404,0.0067434413,0.0032610535,31.800001,20.1,-39.15
0.1101709,0.57001466,9.83874,-0.0016669175,0.0019497513,0.0032610535,31.650002,19.2,-41.25
0.119750984,0.51732427,9.833951,0.011648888,0.0067434413,0.0032610535,32.25,20.550001,-40.95
0.12933107,0.53169435,9.77168,-0.0064606075,-0.0017786743,0.0016631568,32.550003,21.150002,-39.75
0.14849122,0.5125342,9.81958,-0.002732182,0.006210809,0.0016631568,31.050001,21.45,-41.550003
0.100590825,0.5221143,9.74294,-0.002732182,-0.0017786743,0.004326318,28.800001,19.5,-41.7
0.086220704,0.4167334,9.79084,-0.0011342852,0.001417119,-0.010054752,32.4,20.400002,-39.9
0.11496094,0.5029541,9.81,-0.005395343,-1.8077763E-4,-0.0036631655,31.650002,20.550001,-42.15
0.17723145,0.51732427,9.75252,0.0020615081,8.844868E-4,-0.008989488,30.750002,21.0,-40.350002
0.100590825,0.47900394,9.78605,-6.902078E-5,-0.0012460421,-0.0020652688,32.7,19.650002,-41.550003
0.19160157,0.42152345,9.843531,-6.01653E-4,0.006210809,0.0027284212,32.25,20.550001,-41.7
0.15328126,0.52690434,9.833951,0.0015288759,0.003547648,-0.0041957977,32.550003,20.85,-40.5
0.15328126,0.488584,9.848321,-0.005395343,0.0019497513,0.0053915824,31.800001,19.650002,-39.15
0.10538086,0.50774413,9.73815,9.962437E-4,0.0051455447,-0.0036631655,29.550001,20.550001,-42.9
0.18681154,0.5125342,9.75731,-0.0037974464,-0.003909203,-0.0020652688,31.050001,20.1,-41.550003
0.11496094,0.45984375,9.7621,4.6361145E-4,-0.003909203,-0.0015326366,31.35,20.7,-40.350002
0.1820215,0.45026368,9.718989,-0.005395343,0.0019497513,-0.00472843,30.150002,20.550001,-40.5
0.09101075,0.40715334,9.7621,-0.0037974464,-0.0017786743,-0.002597901,31.2,19.2,-38.550003
0.12454102,0.5843848,9.872271,-6.01653E-4,0.0019497513,-4.673721E-4,32.550003,20.25,-41.7
0.13891114,0.52690434,9.74773,-0.0021995497,-1.8077763E-4,0.0016631568,30.750002,20.7,-41.850002
0.07664063,0.5029541,9.74294,0.0025892886,-7.1924645E-4,0.002196578,32.4,19.050001,-40.350002
0.19639161,0.43589357,9.699829,0.0031219209,-0.00391504,-0.0015318476,31.800001,19.650002,-41.100002
0.06706055,0.4167334,9.77168,0.0031219209,0.0035418114,-9.992154E-4,30.6,19.2,-40.5
0.086220704,0.4981641,9.7621,-0.001139137,-0.005512937,-4.6658315E-4,32.100002,19.650002,-40.350002
0.12933107,0.45026368,9.77168,9.91392E-4,0.004607076,0.0016639457,31.2,20.85,-42.15
0.14849122,0.49337405,9.80521,-0.0016717692,0.005139708,0.0016639457,31.800001,21.0,-41.550003
0.13891114,0.5843848,9.78605,0.003654553,-0.0023171431,0.0016639457,31.650002,20.25,-40.5
0.1101709,0.49337405,9.74294,0.0020566564,-0.0017845109,5.986813E-4,31.800001,19.050001,-40.65
0.1341211,0.4406836,9.7621,0.0031219209,-0.007643466,-0.0020644797,30.900002,20.550001,-40.5
0.13891114,0.52690434,9.80521,-0.0075307237,-1.8661423E-4,-0.002597112,32.25,19.800001,-38.850002
0.11496094,0.5556446,9.73815,-0.0032696659,3.46018E-4,-0.004195009,32.550003,21.6,-41.7
0.09580079,0.5221143,9.81958,0.0015240242,-0.007643466,-0.0052602733,31.2,19.800001,-41.7
0.12454102,0.42152345,9.81,0.003654553,0.0014112825,0.002196578,31.35,19.650002,-41.550003
0.15328126,0.38320315,9.848321,9.91392E-4,0.005139708,-0.00685817,31.800001,19.35,-40.350002
0.09580079,0.488584,9.78605,0.003654553,-0.0012518787,0.002196578,32.550003,20.25,-40.5
0.081430666,0.5029541,9.7142,0.005785082,-7.1924645E-4,5.986813E-4,31.650002,19.800001,-42.15
0.14370118,0.5364844,9.79084,0.0020566564,0.0062049725,-0.0015318476,31.35,20.7,-40.350002
0.16765137,0.47900394,9.82437,0.00525245,0.005139708,0.0027292103,31.2,19.800001,-40.5
0.1101709,0.45984375,9.7142,0.003654553,-1.8661423E-4,0.0032618425,31.050001,20.7,-40.350002
0.07664063,0.47900394,9.800421,-0.0059328265,-0.0060455687,0.0027292103,32.4,20.1,-41.550003
0.119750984,0.51732427,9.83874,-0.0022044014,8.7865023E-4,-0.0020644797,31.95,20.550001,-41.25
0.1580713,0.45984375,9.81958,4.5875972E-4,-7.1924645E-4,0.005392371,33.45,20.400002,-41.100002
0.14849122,0.5029541,9.83874,-0.0059328265,0.0019439147,-9.992154E-4,31.800001,20.400002,-41.100002
0.17723145,0.45505372,9.81,0.0031310178,0.0019548584,0.0016624664,32.100002,20.1,-39.45
0.1820215,0.46463382,9.72378,-5.974078E-4,0.0030201229,0.002727731,32.25,20.550001,-41.25
0.13891114,0.46942386,9.73815,-0.00113004,-0.0028388316,0.0053908923,32.25,20.550001,-39.300003
0.1820215,0.50774413,9.79084,-0.003260569,-0.001240935,0.0016624664,32.550003,19.5,-40.5
0.1580713,0.4742139,9.7812605,-6.477558E-5,8.8959397E-4,0.0037929954,33.600002,19.2,-42.9
0.100590825,0.45026368,9.72857,0.0041962825,0.003552755,-0.0052617523,31.800001,19.35,-40.65
0.19639161,0.45026368,9.77168,0.008989972,0.006215916,0.0021950987,32.7,21.45,-41.550003
0.11496094,0.5125342,9.848321,-0.004858466,-0.0028388316,0.0021950987,32.4,19.050001,-41.100002
0.06227051,0.51732427,9.79563,0.0015331211,-7.083027E-4,0.002727731,31.650002,20.85,-40.050003
0.1820215,0.48379397,9.78605,-0.0021953045,0.0014222262,-0.0020659592,31.2,20.85,-40.5
0.17723145,0.50774413,9.77168,-0.0016626723,-0.0033714639,-0.006859649,31.650002,19.5,-40.5
0.119750984,0.41194338,9.81,-0.0016626723,0.0051506516,-0.0052617523,32.100002,19.050001,-40.65
0.15328126,0.47900394,9.75252,-6.477558E-5,3.5696174E-4,6.456979E-5,32.4,19.650002,-40.350002
0.16286133,0.45026368,9.7812605,0.0041962825,-0.0049693603,5.97202E-4,31.800001,21.0,-41.850002
0.100590825,0.43110353,9.80521,0.0031310178,0.0014222262,6.456979E-5,31.650002,20.550001,-41.7
0.100590825,0.4406836,9.75252,0.0010004889,3.5696174E-4,0.004325628,31.650002,20.550001,-41.25
0.1101709,0.45984375,9.7621,0.00366365,-0.0017735672,-4.6806244E-4,31.2,19.5,-39.300003
0.1101709,0.46463382,9.77647,-0.0016626723,-0.0049693603,0.0059235245,31.650002,19.800001,-40.95
0.14370118,0.4981641,9.79563,-0.0027279367,8.8959397E-4,-4.6806244E-4,30.6,19.2,-41.7
-0.0047900393,0.488584,9.77647,-0.008054258,0.0014222262,-0.0031312236,30.750002,20.400002,-41.100002
0.1341211,0.45984375,9.699829,-0.0027279367,-7.083027E-4,0.0037929954,32.7,20.400002,-41.550003
0.12933107,0.4981641,9.82437,0.0010004889,-0.001240935,-4.6806244E-4,30.150002,20.25,-40.050003
0.1101709,0.5221143,9.829161,0.0025983856,-0.0023061994,-0.0036638558,30.900002,21.6,-41.7
0.12454102,0.4742139,9.79563,4.5269495E-4,-0.003922336,0.006991254,33.0,20.550001,-42.15
0.09580079,0.43589357,9.718989,-7.993728E-5,0.002469251,0.0053933575,31.800001,19.650002,-41.850002
0.18681154,0.46942386,9.766891,0.0025832239,-0.0012591747,0.008589151,31.650002,20.550001,-40.050003
0.12933107,0.4981641,9.74294,-0.001677834,-1.9391021E-4,0.008056519,30.900002,20.25,-40.5
0.09101075,0.50774413,9.74294,0.0025832239,0.0014039865,-0.0036613904,30.6,20.25,-40.050003
0.12454102,0.5364844,9.75252,0.005779017,0.005132412,0.0048607253,31.35,19.650002,-39.9
0.1101709,0.47900394,9.78605,-7.993728E-5,0.0035345154,5.996675E-4,31.650002,21.150002,-40.5
0.100590825,0.5412744,9.7812605,0.0041811205,0.00459978,0.0011322997,30.900002,20.550001,-39.300003
0.11496094,0.45505372,9.75731,-7.993728E-5,-7.2654244E-4,0.0053933575,32.550003,20.550001,-40.95
0.19160157,0.488584,9.833951,0.005246385,8.7135425E-4,0.0032628286,32.100002,19.35,-41.550003
0.14370118,0.4263135,9.74773,0.0020505916,3.3872202E-4,-0.0015308615,33.0,20.550001,-40.95
0.100590825,0.44547364,9.829161,0.0063116495,3.3872202E-4,-9.982293E-4,33.75,20.400002,-41.100002
0.20118165,0.4981641,9.833951,0.0036484883,3.3872202E-4,6.703526E-5,31.050001,19.650002,-40.350002
0.1341211,0.46463382,9.79563,0.003115856,0.0014039865,-0.0036613904,32.550003,21.150002,-40.050003
0.1341211,0.4742139,9.75252,-0.0022104662,3.3872202E-4,-0.00845508,32.4,18.300001,-39.9
0.1341211,0.48379397,9.78605,-7.993728E-5,0.0061976765,-0.010052977,32.4,19.35,-39.45
0.1341211,0.50774413,9.766891,-0.0027430984,-0.0012591747,0.0011322997,32.4,19.35,-39.45
0.11496094,0.48379397,9.74773,4.5269495E-4,-0.0028570713,0.0059259897,32.100002,21.45,-42.300003
0.1101709,0.51732427,9.81958,0.0036484883,-0.0023244391,-4.6559697E-4,31.800001,19.35,-39.9
0.119750984,0.53169435,9.814791,0.0015179594,3.3872202E-4,0.004328093,32.100002,19.050001,-40.350002
0.17244141,0.45026368,9.81,4.5269495E-4,0.0035345154,-0.0041940226,32.25,20.85,-38.850002
0.1820215,0.38320315,9.70941,-6.125695E-4,0.0019366187,0.0059259897,33.45,19.35,-40.350002
0.12454102,0.44547364,9.74773,-0.001677834,0.0035345154,-0.0031287582,31.95,19.5,-40.95
0.1101709,0.48379397,9.81,-0.0027430984,0.00459978,0.004328093,32.550003,20.550001,-40.95
0.14370118,0.44547364,9.833951,-0.0027430984,0.0040671476,0.0016649319,32.100002,20.1,-39.9
0.11496094,0.45505372,9.685459,0.005246385,-0.007118129,0.0032628286,32.25,20.550001,-42.9
0.05269043,0.46942386,9.78605,-0.0011452017,0.0030018832,0.004328093,33.300003,19.5,-40.95
0.1580713,0.5556446,9.800421,0.0015179594,3.3872202E-4,0.0027301963,31.2,19.800001,-41.25
0.1101709,0.47900394,9.72857,-6.125695E-4,-0.0033897036,6.703526E-5,31.800001,18.6,-41.850002
0.13891114,0.5221143,9.83874,-0.0011452017,-0.0012591747,-0.005259287,31.95,21.150002,-40.5
0.19160157,0.4406836,9.77647,-0.0022104662,0.0019366187,-0.005259287,31.95,21.150002,-40.5
0.16765137,0.49337405,9.79084,-0.0032757306,-1.9391021E-4,0.006991254,31.650002,20.85,-39.300003
0.1341211,0.52690434,9.766891,-0.0022104662,-0.0012591747,-4.6559697E-4,31.800001,19.35,-39.9
0.14370118,0.49337405,9.73815,0.0025832239,0.0014039865,5.996675E-4,31.800001,19.35,-39.9
0.11496094,0.4981641,9.74773,-0.0027430984,0.0019366187,0.002197564,31.95,19.5,-40.050003
0.11496094,0.4981641,9.80521,-0.0011452017,0.0035345154,-0.0036613904,31.95,19.800001,-40.5
0.12933107,0.3784131,9.766891,0.0025832239,0.0061976765,-0.002596126,33.0,19.5,-40.5
0.12454102,0.46942386,9.881851,0.0041811205,0.005132412,-0.0015308615,32.4,21.45,-40.65
0.086220704,0.44547364,9.733359,4.5269495E-4,-1.9391021E-4,0.0011322997,30.900002,19.5,-40.5
0.119750984,0.51732427,9.75252,0.0036484883,-0.0028570713,0.0032628286,32.4,19.650002,-39.9
0.05748047,0.43589357,9.843531,-0.00806942,-7.2654244E-4,0.0016649319,31.35,20.7,-41.550003
