@ HyperIMU -ianovir - 2018
@ Date:Tue Mar 20 17:14:29 PDT 2018, Sampling Time:20ms

BMI160_accelerometer.x,BMI160_accelerometer.y,BMI160_accelerometer.z,BMI160_gyroscope.x,BMI160_gyroscope.y,BMI160_gyroscope.z,AK09915_magnetometer.x,AK09915_magnetometer.y,AK09915_magnetometer.z
0.0,0.0,0.0,0.0,0.0,0.0,0.0,0.0,0.0
0.0,0.0,0.0,0.0,0.0,0.0,0.0,0.0,0.0
0.0,0.0,0.0,0.0,0.0,0.0,0.0,0.0,0.0
0.0,0.0,0.0,0.0,0.0,0.0,0.0,0.0,0.0
0.0,0.0,0.0,0.0,0.0,0.0,0.0,0.0,0.0
0.0,0.0,0.0,0.0,0.0,0.0,0.0,0.0,0.0
0.0,0.0,0.0,0.0,0.0,0.0,0.0,0.0,0.0
0.0,0.0,0.0,0.0,0.0,0.0,0.0,0.0,0.0
0.0,0.0,0.0,0.0,0.0,0.0,0.0,0.0,0.0
0.0,0.0,0.0,0.0,0.0,0.0,0.0,0.0,0.0
0.0,0.0,0.0,0.0,0.0,0.0,0.0,0.0,0.0
0.0,0.0,0.0,0.0,0.0,0.0,0.0,0.0,0.0
0.0,0.0,0.0,0.0,0.0,0.0,0.0,0.0,0.0
0.0,0.0,0.0,0.0,0.0,0.0,0.0,0.0,0.0
-0.038320314,0.30177248,9.68067,0.008045627,0.006447503,-0.002168944,25.500002,-5.55,-38.850002
-0.043110352,0.3544629,9.7142,0.0016540405,0.002186445,0.0036900104,23.400002,-4.65,-38.850002
-0.028740235,0.32572266,9.81,5.614384E-5,0.0032517095,0.0058205393,25.35,-5.8500004,-37.95
-0.043110352,0.37362307,9.690249,0.006980363,5.5916258E-5,0.0036900104,25.35,-5.4,-38.7
0.07185059,0.29698244,9.73815,5.614384E-5,0.0032517095,-0.0016363119,24.300001,-3.7500002,-38.7
-0.009580079,0.37362307,9.69504,-0.0052701784,-0.0015419804,-0.0037668408,25.35,-6.15,-38.7
-0.019160157,0.34009278,9.623189,-0.0015417528,0.006980135,0.0010268493,24.300001,-4.5,-39.9
-0.019160157,0.39757326,9.685459,-0.0026070173,-0.0036725095,0.0031573782,23.85,-6.0,-39.75
0.028740235,0.4263135,9.72857,0.0037845694,0.006980135,-3.8415164E-5,25.2,-4.65,-38.550003
0.009580079,0.25866213,9.75731,0.006980363,-0.0010093482,-0.0011036796,25.35,-4.8,-37.95
-0.028740235,0.39278322,9.690249,0.0037845694,5.885485E-4,0.0058205393,24.0,-5.1000004,-38.7
-0.09101075,0.3305127,9.6758795,0.0016540405,-4.7671597E-4,0.0036900104,24.150002,-5.25,-38.550003
-0.028740235,0.3879932,9.6758795,-4.7648838E-4,0.001653813,0.0036900104,25.650002,-4.8,-40.350002
-0.019160157,0.42152345,9.656719,0.0032519372,0.004849606,-0.0048321052,25.650002,-5.8500004,-39.15
-0.009580079,0.39278322,9.656719,-0.0015417528,-4.7671597E-4,-0.0011036796,24.300001,-4.5,-37.95
-0.023950197,0.364043,9.6615095,-0.0058028107,0.002186445,-0.0058973697,24.150002,-4.65,-39.300003
-0.009580079,0.4023633,9.64714,-0.0015417528,0.006980135,-0.0048321052,24.150002,-5.55,-39.75
-0.100590825,0.37362307,9.666299,0.0011214083,-0.0042051417,-0.002168944,25.35,-4.8,-39.9
-0.038320314,0.34488282,9.685459,0.0021866728,-0.0010093482,-5.710474E-4,23.400002,-5.25,-38.550003
-0.023950197,0.38320315,9.70941,0.0043172017,5.5916258E-5,0.0063531715,23.85,-6.0,-38.550003
0.009580079,0.364043,9.671089,-0.002074385,-0.0031398772,0.002624746,24.6,-5.4,-39.15
0.0047900393,0.37362307,9.704619,0.0011214083,-0.0020746128,0.0031573782,25.500002,-6.3,-37.65
0.047900394,0.37362307,9.70941,-0.0031396495,0.0011211807,-0.002168944,24.900002,-5.8500004,-38.25
-0.014370117,0.3544629,9.618399,0.0037845694,0.0027190773,-0.004299473,25.35,-4.5,-38.25
-0.038320314,0.39278322,9.70941,-0.004217997,5.739836E-4,-0.004829955,24.300001,-6.4500003,-39.9
0.038320314,0.3879932,9.72378,0.0016409573,0.0032371448,-0.0064278515,24.150002,-5.55,-38.550003
-0.05269043,0.3784131,9.6615095,4.3060576E-5,4.1351363E-5,-0.0058952193,23.85,-4.65,-38.850002
-0.009580079,0.3161426,9.718989,0.005369383,-0.009546028,0.0015616319,25.2,-5.55,-38.550003
-0.038320314,0.39278322,9.7621,-0.0020874683,-0.001023913,-3.6264824E-5,24.45,-4.65,-38.850002
0.033530276,0.364043,9.699829,0.0048367507,0.0032371448,-0.0058952193,24.45,-5.55,-38.850002
0.009580079,0.364043,9.718989,0.0021735895,0.0027045126,-0.0016341615,24.150002,-4.65,-40.050003
-0.047900394,0.364043,9.69504,-0.004217997,-0.0074154995,-0.0016341615,25.35,-6.15,-39.15
-0.023950197,0.3784131,9.671089,0.0016409573,-0.0020891775,-5.6889706E-4,24.150002,-5.25,-38.100002
-0.009580079,0.3544629,9.642349,4.3060576E-5,-0.0020891775,-0.0037646904,24.6,-4.05,-39.45
0.014370117,0.3784131,9.704619,-0.0026201005,0.0027045126,-0.0021667937,24.150002,-4.9500003,-38.850002
-0.047900394,0.34488282,9.642349,-0.0047506294,-0.003154442,-0.0058952193,24.300001,-4.8,-37.5
0.0,0.39757326,9.72378,0.0011083251,0.0011066159,-0.0021667937,23.85,-5.55,-37.65
0.009580079,0.43110353,9.6758795,0.0021735895,0.004302409,0.0015616319,24.150002,-4.9500003,-38.850002
0.038320314,0.34009278,9.718989,-0.001554836,-0.0036870742,-0.0011015292,24.6,-5.1000004,-38.25
-0.009580079,0.34488282,9.699829,0.005369383,-0.003154442,-3.6264824E-5,24.300001,-5.4,-38.7
0.014370117,0.31135255,9.7142,-0.0031527327,0.0053676735,-3.6264824E-5,25.650002,-5.8500004,-39.15
0.05748047,0.37362307,9.70941,-0.003685365,0.0027045126,0.0026268964,24.750002,-6.0,-39.75
-0.0047900393,0.39757326,9.666299,-0.005815894,-0.006882868,0.0015616319,25.2,-5.55,-38.550003
-0.009580079,0.39278322,9.69504,0.005902015,0.0032371448,-0.0042973226,24.0,-4.8,-39.9
0.014370117,0.34488282,9.623189,5.756928E-4,-4.9128087E-4,-0.007493116,24.300001,-5.4,-37.95
0.014370117,0.31135255,9.699829,0.005902015,0.0021718803,0.0020942641,24.300001,-5.8500004,-39.9
-0.019160157,0.364043,9.704619,-0.0031527327,0.006432938,-3.6264824E-5,25.35,-4.8,-39.9
-0.05269043,0.36883304,9.651929,4.3060576E-5,0.0021718803,0.0010289997,25.35,-4.8,-38.7
-0.028740235,0.3544629,9.699829,0.0075306576,-9.896855E-4,-5.7395035E-4,24.150002,-5.25,-38.550003
0.0,0.39757326,9.637559,6.064385E-4,-0.0015223178,-5.7395035E-4,24.45,-4.9500003,-38.550003
-0.009580079,0.37362307,9.7621,-0.002589355,6.082111E-4,-5.7395035E-4,25.2,-7.05,-38.100002
0.014370117,0.3305127,9.699829,-0.0047198837,-0.004185479,0.0010239463,24.750002,-4.2000003,-39.75
0.06227051,0.39757326,9.69504,0.0038022317,-0.00205495,-0.0032371115,24.750002,-4.9500003,-39.75
-0.014370117,0.32572266,9.699829,0.005932761,-0.0052507436,0.0010239463,23.400002,-4.9500003,-38.850002
0.033530276,0.4023633,9.733359,-0.0031219872,-0.0015223178,0.0015565786,25.95,-5.8500004,-38.25
0.038320314,0.35925296,9.623189,-0.0020567228,0.005401901,-0.0053676404,25.35,-6.15,-38.25
-0.05748047,0.27303225,9.75731,0.002204335,0.00753243,0.0015565786,25.800001,-4.65,-38.100002
0.043110352,0.41194338,9.704619,0.010193818,0.0022061078,0.0084807975,25.650002,-6.15,-39.15
-0.009580079,0.34009278,9.72857,-4.58826E-4,6.082111E-4,-0.0016392148,24.45,-5.25,-38.550003
0.038320314,0.34967285,9.68067,0.0027369673,0.0022061078,0.0031544752,26.1,-6.3,-39.75
0.038320314,0.33530274,9.6615095,-0.005785148,-9.896855E-4,4.913141E-4,24.150002,-4.65,-38.850002
0.028740235,0.38320315,9.685459,0.002204335,0.0016734756,0.0015565786,24.0,-5.1000004,-37.95
-0.05269043,0.34967285,9.73815,0.0032695995,-0.00205495,4.913141E-4,24.750002,-5.55,-39.300003
0.038320314,0.3544629,9.72378,6.064385E-4,6.082111E-4,0.0020892108,24.750002,-4.65,-39.300003
-0.028740235,0.39757326,9.733359,0.0075306576,-9.896855E-4,-0.0032371115,22.95,-5.4,-38.7
-0.043110352,0.43589357,9.699829,0.0032695995,0.0016734756,-5.7395035E-4,24.900002,-5.1000004,-39.45
-0.028740235,0.45026368,9.699829,-0.002589355,-0.006316008,0.0031544752,24.900002,-5.1000004,-39.15
0.05269043,0.30177248,9.656719,-9.914582E-4,7.5578864E-5,0.0015565786,24.45,-4.2000003,-38.550003
0.014370117,0.4263135,9.7142,6.064385E-4,-9.896855E-4,-0.0032371115,24.300001,-4.8,-39.45
0.038320314,0.40715334,9.690249,0.0048674964,0.0038040045,-5.7395035E-4,25.35,-5.1000004,-37.95
0.038320314,0.33530274,9.671089,0.008063289,-4.5705336E-4,-5.7395035E-4,25.500002,-6.3,-38.850002
0.019160157,0.34009278,9.685459,0.0027415466,-4.5195565E-4,0.010610574,25.650002,-4.5,-38.7
-0.023950197,0.4263135,9.627979,-0.010041626,-0.0015172202,-0.0037704962,25.500002,-5.25,-38.100002
0.05748047,0.33530274,9.72857,0.0022089144,0.0016785732,0.0010231937,25.95,-5.8500004,-37.5
0.0,0.34488282,9.699829,0.001676282,-4.5195565E-4,-5.74703E-4,25.2,-5.25,-38.550003
0.033530276,0.33530274,9.666299,-0.0036500401,6.133088E-4,-0.0101620825,24.750002,-5.55,-38.850002
-0.05748047,0.4263135,9.6615095,0.0032741788,0.0022112054,-5.74703E-4,24.45,-4.2000003,-38.850002
0.038320314,0.3784131,9.72857,0.0011436498,-0.003647749,0.0015558259,24.0,-5.1000004,-39.15
0.0047900393,0.3544629,9.68067,0.0011436498,-0.0020498524,0.0010231937,24.6,-5.8500004,-37.95
-0.0047900393,0.3305127,9.72857,-4.5424682E-4,8.0676575E-5,0.0026210905,24.900002,-5.4,-39.9
0.009580079,0.34009278,9.613608,6.1101763E-4,0.001145941,-0.005368393,24.150002,-5.25,-40.050003
0.0,0.33530274,9.64714,0.003806811,0.0016785732,4.905615E-4,24.6,-4.5,-37.95
-0.043110352,0.34009278,9.72857,-0.0025847757,-0.0025824846,-4.207074E-5,26.550001,-5.55,-38.100002
0.019160157,0.3161426,9.651929,0.009665766,-0.0031151169,-0.0011073352,25.35,-6.7500005,-39.15
-0.019160157,0.35925296,9.69504,-9.868791E-4,-4.5195565E-4,-0.0043031285,24.750002,-5.25,-39.300003
-0.014370117,0.38320315,9.77647,6.1101763E-4,6.133088E-4,0.0020884583,25.35,-5.8500004,-39.45
0.0047900393,0.3544629,9.74294,-0.0041826726,-0.0025824846,0.004218987,24.45,-7.3500004,-38.100002
-0.033530276,0.43110353,9.74294,-4.5424682E-4,0.0016785732,0.0020884583,24.900002,-5.4,-39.45
-0.0047900393,0.36883304,9.666299,-0.0036500401,-0.00631091,-5.74703E-4,24.6,-6.15,-38.25
-0.023950197,0.3544629,9.70941,0.0011436498,-9.845879E-4,4.905615E-4,24.750002,-4.65,-38.850002
0.019160157,0.33530274,9.69504,-0.00844373,-0.003647749,-0.0011073352,24.900002,-6.4500003,-38.7
-0.05748047,0.3784131,9.69504,-0.0068458337,0.005406999,0.0010231937,24.900002,-4.8,-37.050003
-0.028740235,0.39757326,9.671089,0.0075352364,0.003809102,-4.207074E-5,23.85,-4.9500003,-38.550003
0.019160157,0.40715334,9.656719,-0.0025847757,0.001145941,0.0074147806,23.85,-4.9500003,-38.550003
0.028740235,0.34488282,9.70941,-0.0025847757,0.0064722635,0.0015558259,24.900002,-5.4,-39.9
-0.0047900393,0.35925296,9.64714,0.0011750497,-9.496321E-4,-0.0037756572,25.2,-5.25,-39.300003
-0.033530276,0.34009278,9.7142,0.004370843,1.1563237E-4,-0.0027103927,25.800001,-6.3,-38.100002
-0.028740235,0.3879932,9.77168,0.0011750497,-0.003080161,4.8540067E-4,24.0,-6.4500003,-37.95
0.014370117,0.36883304,9.733359,-0.004683905,0.0033114257,-0.003243025,25.35,-5.8500004,-39.45
0.047900394,0.29698244,9.72857,-0.0014881114,1.1563237E-4,-0.0021777605,24.900002,-4.8,-39.9
-0.038320314,0.34488282,9.70941,0.0033055786,0.001713529,-0.005373554,24.750002,-6.0,-38.850002
-0.033530276,0.3879932,9.613608,0.0033055786,-0.003080161,0.0068769874,25.650002,-4.8,-40.350002
-0.086220704,0.32093263,9.685459,0.0049034753,0.0011808968,-0.0016451282,25.800001,-4.65,-38.550003
0.038320314,0.3544629,9.6758795,0.0038382108,-0.0052106897,0.0010180329,24.6,-5.8500004,-39.45
0.0,0.4263135,9.618399,0.006501372,0.001713529,-0.003243025,25.800001,-5.25,-38.550003
0.023950197,0.34967285,9.72857,-0.002553376,-0.006275954,0.0042138263,24.150002,-4.9500003,-40.050003
-0.009580079,0.33530274,9.7142,-0.0036186404,-9.496321E-4,-5.798638E-4,25.650002,-5.8500004,-38.25
-0.023950197,0.40715334,9.666299,0.004370843,-0.006275954,0.0020832974,24.6,-5.1000004,-39.45
-0.05269043,0.364043,9.733359,0.0011750497,0.005974587,-0.0016451282,25.650002,-5.1000004,-39.9
-0.009580079,0.3879932,9.70941,0.008631901,-0.0036127933,0.003681194,25.500002,-4.65,-38.100002
0.033530276,0.4406836,9.627979,-0.0036186404,-0.006275954,-0.0048409216,24.750002,-5.55,-39.75
0.05748047,0.4406836,9.74294,-0.002553376,-0.0014822644,-5.798638E-4,24.0,-6.15,-38.7
-0.081430666,0.43589357,9.666299,1.0978522E-4,0.0027787935,-0.003243025,26.1,-6.0,-38.850002
-0.014370117,0.32572266,9.685459,-4.22847E-4,1.1563237E-4,0.0010180329,24.6,-5.1000004,-38.7
0.009580079,0.37362307,9.70941,0.008099268,0.0022461612,-0.005373554,24.300001,-4.8,-38.7
-0.014370117,0.4167334,9.623189,0.0011750497,-0.0046780575,-4.723155E-5,25.650002,-4.5,-39.45
-0.028740235,0.34967285,9.69504,-0.0014881114,-0.0025475288,0.0020832974,25.2,-5.55,-40.050003
-0.038320314,0.39278322,9.656719,-0.0062818015,-0.0020148966,-0.0027103927,24.45,-6.3,-38.850002
0.14370118,0.4023633,9.6758795,0.0038656858,0.005472541,-0.0021822762,24.150002,-5.55,-40.050003
0.009580079,0.4023633,9.594449,6.698923E-4,6.788509E-4,4.8088498E-4,25.650002,-6.15,-37.5
-0.0047900393,0.364043,9.685459,0.0012025245,0.0012114831,0.0015461494,24.150002,-4.65,-39.300003
-0.019160157,0.40715334,9.74773,0.0059962147,-0.0051801037,-5.843795E-4,24.900002,-5.4,-37.95
0.009580079,0.364043,9.72857,-0.0014606366,-0.0041148392,-5.843795E-4,24.900002,-5.4,-39.15
-0.009580079,0.34488282,9.70941,0.0038656858,-3.8641354E-4,0.0015461494,24.300001,-5.4,-37.5
0.0,0.40715334,9.666299,1.3726008E-4,-0.010506426,-0.0011170118,25.650002,-5.4,-37.5
-0.043110352,0.3305127,9.704619,0.002267789,-0.0041148392,-0.0011170118,24.150002,-5.55,-38.850002
0.09580079,0.37362307,9.671089,0.0033330536,0.003342012,0.003144046,24.6,-6.4500003,-38.7
0.009580079,0.3784131,9.7142,1.3726008E-4,-0.001451678,-0.0027149084,24.150002,-4.9500003,-39.75
0.0047900393,0.3305127,9.690249,-3.9537216E-4,-0.0025169426,0.0015461494,24.6,-4.05,-37.95
0.038320314,0.3544629,9.718989,1.3726008E-4,0.0028093797,0.003144046,26.1,-5.55,-37.350002
-0.047900394,0.38320315,9.671089,0.0012025245,0.003342012,0.0020787816,25.800001,-5.25,-38.550003
0.0,0.30177248,9.70941,-0.0019932687,6.788509E-4,-0.0027149084,25.500002,-6.0,-38.850002
0.0047900393,0.3784131,9.671089,-0.0014606366,0.0022767475,0.0058072074,25.35,-5.1000004,-37.5
0.043110352,0.34967285,9.72857,0.0017351568,-0.003582207,-0.0011170118,24.45,-5.25,-37.65
-0.06706055,0.36883304,9.74773,-3.9537216E-4,0.005472541,0.0020787816,24.900002,-6.15,-38.25
0.033530276,0.37362307,9.666299,0.0049309502,0.003342012,0.0010135171,24.900002,-6.15,-38.7
-0.023950197,0.28261232,9.7142,1.3726008E-4,0.0038746442,0.0015461494,26.550001,-4.9500003,-36.9
0.028740235,0.36883304,9.733359,-0.0019932687,6.788509E-4,0.008470369,25.800001,-5.55,-37.350002
-0.009580079,0.3879932,9.690249,0.0033330536,0.003342012,0.0026114138,25.35,-6.15,-39.15
-0.033530276,0.34488282,9.69504,0.002267789,-0.0041148392,-5.1747265E-5,25.650002,-5.4,-37.95
0.05748047,0.39278322,9.685459,-0.007319591,1.4621869E-4,0.0010135171,25.2,-4.9500003,-38.850002
-0.009580079,0.35925296,9.666299,-0.006767334,-0.0014298307,0.0031408207,25.35,-4.05,-38.7
0.043110352,0.39757326,9.73815,-0.004636805,0.0012333305,-0.0027181339,25.650002,-6.15,-38.25
-0.043110352,0.32572266,9.72857,-0.001973644,1.6806606E-4,-0.0016528695,23.400002,-5.55,-38.850002
0.0,0.4023633,9.64714,0.0012221495,-0.0014298307,-0.0016528695,24.300001,-4.05,-38.25
-0.033530276,0.36883304,9.671089,1.5688497E-4,-0.0024950951,0.0020755562,24.150002,-4.9500003,-38.850002
-0.043110352,0.32093263,9.699829,-0.001973644,-0.0056908885,0.0026081884,24.750002,-4.9500003,-37.65
0.009580079,0.34967285,9.73815,-0.004104173,-0.001962463,-5.4972774E-5,25.35,-5.1000004,-37.5
0.028740235,0.35925296,9.733359,-9.083795E-4,-0.0062235207,4.7765946E-4,25.2,-6.0,-39.75
0.009580079,0.41194338,9.651929,1.5688497E-4,0.0038964916,4.7765946E-4,24.900002,-6.4500003,-39.15
-0.028740235,0.364043,9.642349,1.5688497E-4,-8.971984E-4,-5.4972774E-5,24.750002,-4.9500003,-38.850002
-0.0047900393,0.33530274,9.68067,0.002287414,7.006983E-4,-0.0021855016,25.35,-5.8500004,-38.25
-0.028740235,0.40715334,9.718989,-0.0014410117,0.0065596527,-5.87605E-4,24.900002,-4.8,-38.25
-0.023950197,0.38320315,9.6758795,-0.004104173,0.002298595,0.0031408207,24.750002,-4.9500003,-38.550003
0.009580079,0.38320315,9.690249,-0.0014410117,-0.008886682,-0.0037833983,25.500002,-5.25,-38.850002
-0.0047900393,0.39278322,9.72857,1.5688497E-4,-0.004625624,0.0026081884,24.750002,-4.65,-38.850002
0.028740235,0.32572266,9.7142,-9.083795E-4,-0.00835405,-0.0037833983,25.2,-5.55,-39.75
0.019160157,0.4023633,9.642349,0.002287414,-0.0051582563,-0.0027181339,24.6,-5.8500004,-39.45
0.014370117,0.31135255,9.690249,-0.0014410117,0.004429124,0.0020755562,25.2,-6.0,-38.100002
0.019160157,0.3879932,9.72857,-0.0035715406,0.0017659627,-0.0043160305,24.900002,-6.7500005,-38.25
-0.028740235,0.3544629,9.632769,0.0017547817,-8.971984E-4,-0.0016528695,25.2,-5.25,-39.300003
0.033530276,0.40715334,9.699829,-0.0014410117,-0.0056908885,-0.0011202373,24.750002,-5.55,-39.300003
0.06706055,0.4263135,9.642349,-0.001973644,0.0033638594,-0.005381295,24.6,-4.8,-37.95
-0.009580079,0.43589357,9.64714,0.004417943,0.004961756,0.0052713496,24.150002,-5.25,-38.850002
0.0,0.34488282,9.68067,-0.006211152,-0.0024688782,-0.0016567401,24.900002,-4.05,-38.25
-0.033530276,0.37362307,9.69504,0.0039088605,-0.0045994073,0.001006421,23.85,-7.3500004,-37.65
-0.009580079,0.40715334,9.6758795,0.0012456994,7.2691514E-4,-0.003787269,25.2,-4.65,-38.100002
0.019160157,0.4406836,9.69504,-0.0056785196,-0.0014036137,0.00313695,24.150002,-6.0,-37.350002
0.0,0.34967285,9.74773,0.0044414927,0.0017921797,0.0047348468,24.45,-4.9500003,-38.850002
0.100590825,0.44547364,9.68067,0.0039088605,-0.0051320395,-0.0016567401,26.1,-5.25,-38.850002
-0.038320314,0.34488282,9.651929,-0.001950094,0.0044553406,0.0036695823,24.150002,-5.25,-37.350002
-0.019160157,0.39278322,9.7142,-0.0051458874,-0.0014036137,-0.0011241079,25.35,-5.8500004,-37.95
-0.05269043,0.4406836,9.72378,0.0044414927,-0.0035341426,0.0020716856,25.35,-5.4,-37.95
-0.014370117,0.3879932,9.69504,-3.5219738E-4,-0.001936246,-5.8843383E-5,24.900002,-5.1000004,-39.15
-0.047900394,0.34967285,9.64714,-0.001950094,1.9428291E-4,0.0020716856,25.650002,-5.1000004,-38.7
-0.028740235,0.42152345,9.718989,0.002843596,1.9428291E-4,-0.0032546367,25.35,-4.5,-40.350002
0.038320314,0.32093263,9.74294,0.005506757,0.0017921797,0.0020716856,24.150002,-5.25,-38.850002
-0.009580079,0.39278322,9.68067,0.0017783316,0.002857444,-5.9147563E-4,25.650002,-4.8,-38.7
0.019160157,0.33530274,9.671089,-0.0072764163,-0.001936246,-0.0027220044,25.500002,-6.0,-37.350002
0.009580079,0.3784131,9.68067,0.0012456994,-0.006197304,-0.0011241079,25.2,-4.65,-38.850002
-0.019160157,0.39757326,9.666299,-0.0014174618,-0.0051320395,-0.0032546367,25.2,-5.25,-37.65
-0.009580079,0.34009278,9.699829,-0.0024827262,-0.0077952007,-0.003787269,25.650002,-6.4500003,-37.5
0.0,0.4167334,9.72378,-0.0030153585,-0.001936246,-5.8843383E-5,25.500002,-4.9500003,-38.850002
0.038320314,0.3544629,9.7621,0.0023109638,-0.0014036137,0.001006421,24.45,-4.2000003,-38.850002
0.028740235,0.3879932,9.704619,0.0060393894,7.2691514E-4,0.001006421,24.45,-6.3,-38.550003
-0.07185059,0.43589357,9.656719,0.005506757,-8.7098154E-4,0.0047348468,23.85,-5.55,-38.850002
-0.028740235,0.3784131,9.77168,0.002843596,-0.001936246,0.0015390533,24.150002,-5.25,-39.300003
-0.047900394,0.38320315,9.671089,-3.5219738E-4,-0.001936246,0.0020716856,25.650002,-5.4,-38.25
0.014370117,0.41194338,9.699829,-0.0030029295,0.006067074,0.0020696428,24.300001,-5.4,-40.350002
-0.009580079,0.32572266,9.72857,-0.0035355617,0.003403913,-6.0886206E-5,25.35,-5.8500004,-39.9
0.023950197,0.38320315,9.68067,-3.3976827E-4,-8.571449E-4,-0.0027240473,24.0,-5.4,-39.9
-0.014370117,0.364043,9.73815,0.0012581284,0.0028712808,0.0010043782,24.300001,-5.8500004,-38.25
-0.05748047,0.44547364,9.6758795,0.007117083,0.008730235,0.002602275,24.6,-5.1000004,-39.45
-0.0047900393,0.4167334,9.6758795,0.0039212895,-0.005650835,-0.0037893117,24.300001,-4.8,-38.25
-0.047900394,0.37362307,9.64714,7.254962E-4,0.0012733841,0.007395965,25.2,-5.55,-40.5
-0.019160157,0.4167334,9.690249,-0.0019376649,-0.0024550415,0.0057980684,24.900002,-5.4,-38.25
0.05748047,0.3305127,9.70941,0.0012581284,-0.003520306,-0.002191415,25.2,-4.9500003,-38.850002
0.028740235,0.36883304,9.6615095,0.0023233928,0.003403913,-0.006452473,24.750002,-5.25,-40.050003
0.028740235,0.31135255,9.690249,-0.0035355617,0.0018060163,-0.004321944,24.900002,-5.8500004,-39.15
-0.086220704,0.4167334,9.685459,7.254962E-4,-0.0019224093,-0.0037893117,24.6,-5.1000004,-39.15
0.023950197,0.40715334,9.733359,0.004986554,-8.571449E-4,-0.0027240473,25.35,-6.4500003,-38.25
0.06227051,0.38320315,9.6758795,0.0017907607,0.0012733841,-0.006452473,24.150002,-6.3,-38.850002
-0.0047900393,0.3161426,9.72378,0.0087149795,0.0023386485,0.0015370104,25.500002,-5.55,-38.100002
-0.028740235,0.34009278,9.72857,-0.0019376649,7.407518E-4,-6.0886206E-5,25.650002,-5.1000004,-39.15
-0.023950197,0.3305127,9.72378,-8.724005E-4,2.0811957E-4,0.006863333,25.35,-5.1000004,-37.5
0.033530276,0.34009278,9.6758795,0.0044539217,7.407518E-4,0.002602275,25.500002,-6.3,-37.350002
0.038320314,0.34009278,9.699829,0.0017907607,0.0050018094,0.007395965,24.45,-4.9500003,-38.850002
-0.009580079,0.35925296,9.7621,0.0065844506,0.006599706,-5.9351843E-4,25.95,-4.8,-39.45
-0.07185059,0.3784131,9.671089,1.9286395E-4,2.0811957E-4,-0.0011261507,24.45,-5.25,-39.300003
-0.06227051,0.39278322,9.637559,-0.0035355617,-8.571449E-4,0.0015370104,24.900002,-6.15,-37.5
-0.0047900393,0.3784131,9.637559,-0.0024702973,-0.0072487313,-0.001658783,26.550001,-5.25,-37.65
-0.023950197,0.3879932,9.599238,0.002879575,-2.9829587E-4,-0.0027279179,24.0,-4.5,-39.45
0.014370117,0.34488282,9.75731,0.0039448394,0.0012996008,0.0031310366,25.500002,-7.05,-38.100002
0.07664063,0.39757326,9.651929,0.0039448394,-0.002961457,-0.0043258145,25.2,-6.3,-39.300003
0.07664063,0.37362307,9.699829,-0.0024467474,-8.309281E-4,-0.0043258145,24.750002,-4.9500003,-38.850002
0.023950197,0.4023633,9.704619,0.0023469427,-0.0072225146,-0.0037931823,23.85,-3.9,-39.300003
0.033530276,0.3879932,9.79563,0.0034122071,0.0012996008,-0.0027279179,25.2,-6.6000004,-39.75
-0.009580079,0.36883304,9.685459,-0.001914115,7.669686E-4,-0.0011300213,25.650002,-5.4,-40.65
-0.009580079,0.34009278,9.7142,0.0060753683,0.001832233,0.0010005076,25.95,-5.8500004,-37.95
0.047900394,0.3879932,9.6758795,-0.0013814828,-0.0018961926,-0.005923711,24.750002,-5.25,-38.100002
0.014370117,0.41194338,9.627979,0.005542736,0.0023648653,0.0020657722,25.500002,-4.9500003,-37.65
0.0047900393,0.4742139,9.72378,0.008205897,0.005028026,-5.9738907E-4,25.500002,-6.0,-38.850002
0.028740235,0.39278322,9.7621,2.1641383E-4,-8.309281E-4,-0.0021952856,24.750002,-4.2000003,-39.300003
0.047900394,0.3544629,9.733359,-0.004044644,-0.011483572,-0.0016626535,24.0,-5.4,-37.95
0.0047900393,0.3305127,9.6758795,2.1641383E-4,0.0012996008,-0.0037931823,24.900002,-4.8,-39.45
0.038320314,0.43110353,9.74294,0.0044774716,0.001832233,-0.004858447,24.45,-4.9500003,-39.300003
0.0,0.40715334,9.70941,-0.0051099085,-0.002961457,0.007924726,25.650002,-6.7500005,-38.7
0.033530276,0.3305127,9.72378,0.005542736,0.005028026,-6.4756816E-5,24.300001,-5.8500004,-39.15
-0.06706055,0.30177248,9.690249,0.005542736,0.0012996008,0.007924726,24.750002,-4.65,-39.75
0.0,0.34488282,9.6615095,0.0012816783,0.005560659,-5.9738907E-4,25.2,-4.9500003,-39.300003
-0.086220704,0.35925296,9.6758795,-0.001914115,-0.002961457,-0.0043258145,24.750002,-6.3,-37.65
-0.038320314,0.42152345,9.73815,0.0018143106,0.0012996008,4.6787542E-4,25.650002,-5.1000004,-38.25
-0.019160157,0.3065625,9.690249,-3.1621841E-4,0.0039627617,-6.4756816E-5,25.800001,-5.55,-38.850002
-0.014370117,0.34967285,9.74294,-0.0051099085,-0.0034940892,-0.0027279179,25.35,-5.1000004,-39.15
0.019160157,0.3305127,9.6758795,0.002879575,-8.309281E-4,0.0020657722,24.45,-6.6000004,-38.550003
-0.028740235,0.30177248,9.6615095,-0.006175173,0.0023648653,0.0025984044,24.0,-5.4,-39.15
-0.047900394,0.4167334,9.637559,0.002879575,-2.9829587E-4,-6.4756816E-5,24.900002,-5.4,-39.9
-0.014370117,0.34009278,9.73815,0.0012816783,2.3433636E-4,0.0015331398,24.750002,-6.0,-38.550003
0.009580079,0.29698244,9.685459,-0.0035120118,-8.309281E-4,0.0015331398,25.500002,-5.25,-38.550003
-0.009580079,0.34967285,9.69504,0.0023469427,0.0023648653,0.0020657722,25.650002,-6.7500005,-38.7
0.043110352,0.32572266,9.671089,-0.0013814828,-0.0013635603,0.0015331398,25.35,-5.4,-38.25
-0.05269043,0.3305127,9.70941,0.0018143106,0.005028026,-0.0011300213,24.0,-5.4,-39.15
-0.043110352,0.35925296,9.690249,7.4904604E-4,-0.0013635603,-6.4756816E-5,25.800001,-4.9500003,-38.850002
-0.014370117,0.33530274,9.72857,-8.4885064E-4,0.001832233,-0.0016626535,25.800001,-4.9500003,-37.65
0.07664063,0.38320315,9.69504,-0.001914115,-0.004026721,-0.0016626535,24.45,-5.55,-39.300003
0.07185059,0.3784131,9.72378,2.1641383E-4,-0.004026721,-0.0011300213,24.6,-4.05,-39.15
0.023950197,0.43589357,9.79563,-0.0051099085,-0.0013635603,4.6787542E-4,25.35,-4.8,-38.7
-0.081430666,0.39278322,9.72378,2.1641383E-4,-0.002961457,-0.0016626535,25.35,-5.1000004,-37.95
-0.086220704,0.33530274,9.656719,-0.0029793796,-0.002961457,0.0010005076,24.900002,-5.1000004,-39.9
-0.0047900393,0.3161426,9.651929,-3.1621841E-4,0.001832233,0.0015331398,26.400002,-4.8,-37.5
0.023950197,0.34488282,9.70941,0.007673265,-0.010418309,4.6787542E-4,24.750002,-4.65,-38.100002
-0.038320314,0.4406836,9.70941,2.1641383E-4,-0.0013635603,-0.0011300213,24.45,-5.55,-38.100002
0.05269043,0.41194338,9.651929,0.0044774716,0.0039627617,0.0025984044,24.900002,-5.1000004,-39.45
0.033530276,0.42152345,9.74294,0.0034122071,-8.309281E-4,0.0036636689,25.35,-6.15,-38.7
0.014370117,0.38320315,9.685459,0.005542736,0.001832233,-6.4756816E-5,27.300001,-5.8500004,-37.5
-0.019160157,0.34009278,9.685459,0.0012816783,-0.004026721,0.004196301,25.2,-4.65,-38.850002
-0.0047900393,0.37362307,9.64714,-0.001914115,-0.004026721,-0.004858447,25.35,-4.5,-38.25
-0.028740235,0.31135255,9.69504,7.4904604E-4,-0.0013635603,0.0010005076,24.900002,-4.5,-37.050003
0.023950197,0.34967285,9.651929,-0.006167323,-8.2218915E-4,0.005260275,24.150002,-4.9500003,-38.550003
0.023950197,0.36883304,9.72857,-0.0029715295,-0.007746408,-0.0059250016,25.800001,-4.9500003,-37.65
-0.014370117,0.39278322,9.718989,-3.0836844E-4,-8.2218915E-4,-0.00805553,24.6,-4.8,-38.7
0.033530276,0.4167334,9.632769,0.0018221604,0.0034388686,9.992174E-4,24.45,-5.25,-38.100002
-0.033530276,0.34009278,9.733359,0.005017954,0.0050367652,0.0020644818,24.45,-4.2000003,-37.350002
0.009580079,0.34967285,9.68067,7.56896E-4,2.4307531E-4,0.0031297463,23.85,-4.9500003,-38.550003
0.0,0.3879932,9.671089,0.0039526895,0.0055693975,9.992174E-4,24.750002,-5.25,-38.550003
-0.033530276,0.39278322,9.704619,-0.004569426,-8.2218915E-4,0.0036623785,26.1,-6.3,-37.65
-0.009580079,0.34967285,9.690249,7.56896E-4,-2.8955692E-4,-5.9867924E-4,25.2,-6.3,-37.65
-0.014370117,0.43110353,9.69504,-0.0072325873,-0.0040179826,-0.0016639438,24.6,-5.4,-39.15
-0.10538086,0.34967285,9.690249,-8.410007E-4,-2.8955692E-4,-6.604702E-5,24.900002,-5.4,-38.25
0.009580079,0.36883304,9.68067,7.56896E-4,-8.2218915E-4,-0.0016639438,25.650002,-4.8,-38.25
-0.038320314,0.4406836,9.72378,0.0012895282,-0.0061485115,-0.004327105,24.45,-4.65,-38.550003
0.019160157,0.364043,9.704619,0.0066158506,-0.0061485115,0.005260275,24.750002,-5.55,-38.850002
-0.019160157,0.34488282,9.6758795,-0.0019062652,0.0034388686,4.6658522E-4,23.550001,-4.8,-38.25
-0.038320314,0.33530274,9.671089,-0.0035041617,0.0034388686,-0.002196576,25.650002,-5.4,-38.25
-0.028740235,0.37362307,9.704619,2.2426379E-4,-0.002420086,0.0020644818,25.2,-4.65,-39.75
0.009580079,0.39757326,9.666299,-0.004569426,-0.0040179826,-0.0032618404,24.45,-5.25,-38.850002
0.07185059,0.4406836,9.72378,-0.0035041617,-0.0034853504,0.0031297463,25.35,-5.4,-39.45
0.06706055,0.4406836,9.733359,0.0012895282,0.002373604,0.0031297463,24.6,-6.15,-38.25
0.009580079,0.34967285,9.72857,0.005017954,0.0013083398,-5.9867924E-4,24.150002,-4.9500003,-39.75
-0.043110352,0.32572266,9.72378,7.56896E-4,7.7570754E-4,-5.9867924E-4,24.900002,-5.8500004,-38.7
0.014370117,0.3544629,9.69504,0.0023547928,-2.8955692E-4,-0.0011313115,24.45,-5.25,-37.350002
-0.009580079,0.41194338,9.6615095,0.008649744,0.003034011,-6.774065E-5,24.750002,-6.0,-38.100002
0.009580079,0.43589357,9.685459,0.0055241697,0.0010826027,-0.0026167003,24.45,-5.25,-37.65
-0.019160157,0.33530274,9.6758795,-0.0019326814,5.499704E-4,-0.004747229,24.750002,-4.2000003,-37.65
0.023950197,0.28740236,9.699829,-0.002997946,-0.0063742483,-4.8617137E-4,24.0,-4.8,-38.7
0.038320314,0.364043,9.75252,0.007654698,0.008539453,0.005372783,24.150002,-5.25,-39.75
0.033530276,0.3879932,9.733359,-0.0035305782,-0.0042437194,4.646085E-5,25.2,-5.55,-38.550003
0.0,0.36883304,9.690249,-0.0014000492,1.73382E-5,0.002709622,26.400002,-6.4500003,-38.25
-0.0047900393,0.364043,9.7142,0.003926273,-5.15294E-4,0.0011117253,25.500002,-3.9,-39.75
0.033530276,0.3065625,9.690249,0.0033936407,-0.006906881,5.7909306E-4,25.2,-5.25,-38.850002
0.023950197,0.39757326,9.75252,0.0055241697,-0.005308984,0.0016443576,25.650002,-5.8500004,-37.95
0.019160157,0.41194338,9.72378,0.003926273,0.0042783963,0.002709622,25.95,-5.1000004,-37.5
-0.019160157,0.3544629,9.72857,-0.0045958427,-0.0063742483,0.0032422543,26.85,-4.9500003,-37.65
-0.0047900393,0.36883304,9.656719,0.0017957442,5.499704E-4,0.0016443576,24.45,-5.25,-38.850002
0.0047900393,0.3065625,9.671089,-0.0035305782,-0.002645823,-4.8617137E-4,25.35,-5.4,-38.25
-0.06227051,0.40715334,9.70941,-0.002997946,1.73382E-5,-0.0031493325,24.0,-4.8,-39.15
0.009580079,0.4167334,9.7142,0.0017957442,-5.15294E-4,-0.0010188036,25.500002,-5.55,-36.9
-0.05269043,0.2778223,9.733359,-8.6741697E-4,-0.0031784552,0.0016443576,25.2,-4.9500003,-38.550003
-0.019160157,0.32093263,9.64714,7.304797E-4,0.0032131316,4.646085E-5,24.300001,-5.4,-39.15
-0.033530276,0.3544629,9.72378,0.0049915374,0.0037457638,-0.0015514358,25.95,-5.4,-38.7
0.033530276,0.39278322,9.72378,0.0017957442,0.0058762925,-0.0015514358,24.45,-5.55,-39.300003
0.023950197,0.33530274,9.718989,0.004458905,0.0010826027,0.0016443576,25.500002,-6.0,-39.75
-0.014370117,0.36883304,9.651929,-0.005128475,5.499704E-4,-0.0015514358,24.750002,-5.25,-38.850002
-0.038320314,0.42152345,9.666299,1.9784746E-4,-0.002645823,-0.0036819647,25.500002,-4.9500003,-38.550003
0.019160157,0.36883304,9.75731,-0.0014000492,-0.002645823,-0.004214597,24.750002,-6.6000004,-38.550003
0.0,0.3065625,9.642349,-7.719719E-4,-0.0057355734,0.0026949272,25.35,-6.15,-38.25
-0.0047900393,0.40715334,9.699829,8.259248E-4,-0.0020071478,0.0016296627,24.900002,-4.5,-40.350002
0.033530276,0.32572266,9.72378,-0.0039677653,6.5601344E-4,-0.004761924,24.0,-5.1000004,-39.15
0.014370117,0.36883304,9.704619,0.004021718,1.233812E-4,0.0016296627,24.750002,-5.55,-39.75
-0.033530276,0.3879932,9.69504,0.0018911893,0.0027865423,0.0016296627,24.750002,-5.25,-37.65
-0.023950197,0.32572266,9.685459,0.0050869826,-0.00253978,0.0016296627,25.35,-6.15,-37.5
0.0,0.28740236,9.632769,0.0018911893,1.233812E-4,-0.0063598207,24.750002,-4.9500003,-38.550003
-0.023950197,0.39278322,9.70941,0.006152247,0.004917071,-5.008662E-4,26.1,-6.3,-38.100002
0.047900394,0.36883304,9.69504,-0.0013046041,-9.4188325E-4,-0.004229292,24.900002,-5.8500004,-37.95
0.081430666,0.41194338,9.75731,-0.006098294,-9.4188325E-4,0.0032275594,25.2,-4.65,-38.100002
0.033530276,0.44547364,9.733359,-7.719719E-4,0.009710762,-0.002098763,25.2,-5.55,-38.850002
0.033530276,0.34009278,9.74773,0.004021718,-0.0020071478,0.0026949272,24.6,-5.8500004,-39.45
0.009580079,0.34967285,9.704619,-0.0045003975,-0.00253978,0.004292824,24.750002,-5.55,-38.100002
0.1101709,0.3305127,9.699829,0.0045543504,0.00225391,5.6439824E-4,24.6,-5.4,-38.25
0.06227051,0.3305127,9.599238,-0.0023698686,0.0033191745,-5.008662E-4,25.35,-5.4,-38.7
-0.038320314,0.44547364,9.70941,0.0024238215,-0.0020071478,-0.0010334984,25.650002,-6.4500003,-38.25
-0.07664063,0.38320315,9.7621,-2.3933969E-4,0.004384439,-0.0026313951,25.650002,-4.5,-38.7
-0.05748047,0.3305127,9.671089,0.005619615,0.0011886456,-0.0036966596,25.650002,-6.15,-39.15
-0.014370117,0.39757326,9.74294,8.259248E-4,-0.004670309,0.0032275594,24.750002,-5.55,-38.550003
-0.028740235,0.34009278,9.704619,0.0045543504,0.0017212778,0.0016296627,24.0,-5.1000004,-38.7
-0.05748047,0.34967285,9.632769,0.006152247,-0.0020071478,-5.008662E-4,25.35,-5.4,-38.25
-0.12454102,0.2921924,9.6758795,-2.3933969E-4,-4.0925102E-4,0.0010970305,23.25,-4.8,-39.15
-0.023950197,0.39757326,9.618399,0.001358557,-0.0014745155,-0.0010334984,25.500002,-5.25,-39.300003
-0.028740235,0.40715334,9.72378,-7.55021E-4,0.0049359044,-0.0074276947,26.1,-5.25,-38.550003
0.028740235,0.30177248,9.72378,-0.0028855498,0.0012074788,-0.0015687405,24.750002,-5.55,-38.100002
0.009580079,0.37362307,9.699829,0.0013755079,0.0028053755,-0.0042319014,25.95,-4.8,-37.5
0.038320314,0.364043,9.666299,0.0019081401,6.748466E-4,0.0032249496,24.750002,-5.55,-38.850002
-0.043110352,0.37362307,9.72857,0.0029734047,0.006533801,2.9156228E-5,25.35,-5.1000004,-38.7
-0.047900394,0.39757326,9.718989,-2.2238876E-4,0.0049359044,2.9156228E-5,25.2,-7.05,-37.65
-0.028740235,0.34488282,9.718989,8.428757E-4,0.00387064,-0.0042319014,24.6,-5.4,-39.15
-0.038320314,0.39757326,9.718989,-0.006081343,6.748466E-4,-5.03476E-4,24.45,-4.65,-38.100002
0.019160157,0.4023633,9.6615095,-2.2238876E-4,0.0049359044,2.9156228E-5,24.45,-5.55,-37.65
-0.047900394,0.38320315,9.7621,-0.009277137,-3.9041787E-4,0.0048228465,25.35,-4.8,-39.15
-0.0047900393,0.31135255,9.75252,-0.0018202855,-3.9041787E-4,0.0016270529,25.95,-6.15,-38.7
0.009580079,0.3065625,9.584868,8.428757E-4,-0.0025209468,-0.005297166,25.650002,-5.8500004,-37.95
-0.019160157,0.3879932,9.69504,3.1024346E-4,-0.0025209468,-0.0042319014,24.45,-5.55,-37.65
-0.023950197,0.32093263,9.699829,-0.0023529176,0.0033380077,-5.03476E-4,25.2,-6.6000004,-38.550003
-0.0047900393,0.3784131,9.718989,0.0013755079,-0.0014556823,0.0016270529,24.300001,-5.8500004,-38.7
-0.009580079,0.36883304,9.7621,-0.005548711,6.748466E-4,-0.0015687405,25.800001,-5.55,-37.350002
-0.023950197,0.42152345,9.74294,0.0024407725,0.004403272,-0.0042319014,25.2,-4.2000003,-38.100002
-0.019160157,0.32093263,9.70941,0.0013755079,-0.0035862112,2.9156228E-5,25.2,-6.3,-38.850002
-0.043110352,0.34488282,9.75252,0.0067018303,0.0022727433,0.0021596851,24.45,-6.0,-39.75
-0.009580079,0.3544629,9.671089,0.0072344625,-0.0046514757,5.6178845E-4,24.300001,-5.1000004,-40.350002
0.06227051,0.33530274,9.666299,3.1024346E-4,0.0022727433,0.0042902143,24.750002,-4.65,-38.550003
-0.019160157,0.26345217,9.72378,-0.0012876532,-0.0014556823,2.9156228E-5,26.1,-4.9500003,-37.350002
0.0,0.41194338,9.73815,-7.55021E-4,0.001740111,0.0010944207,25.95,-6.15,-38.25
-0.0047900393,0.41194338,9.72857,0.005636566,0.0022727433,-0.0010361082,24.0,-6.15,-38.25
-0.014370117,0.33530274,9.690249,0.0019192235,-0.0041065295,-0.0058315047,25.650002,-5.4,-39.9
-0.028740235,0.3784131,9.733359,0.0019192235,-0.010498117,5.6008203E-4,24.150002,-6.0,-38.100002
-0.0047900393,0.34488282,9.72378,3.2132678E-4,-0.005704426,-0.0058315047,24.900002,-4.8,-37.5
0.05269043,0.37362307,9.699829,0.0035171201,-0.0035738973,0.0010927143,24.750002,-3.9,-38.550003
0.0047900393,0.41194338,9.642349,0.005115017,6.8716053E-4,-0.002103079,25.2,-5.25,-38.550003
0.0,0.3544629,9.72857,0.002984488,0.0076113795,-0.0026357113,25.95,-6.15,-38.7
0.019160157,0.39278322,9.73815,0.002984488,0.0012197928,-0.0026357113,25.35,-4.8,-37.95
-0.0047900393,0.34009278,9.77168,0.002984488,-0.0019760006,5.6008203E-4,25.500002,-5.25,-38.550003
-0.0047900393,0.39278322,9.594449,-0.0044723633,-0.005171794,-0.0031683436,24.900002,-5.8500004,-38.7
-0.033530276,0.4167334,9.733359,-0.0034070988,-0.0014433684,0.0021579787,25.35,-5.8500004,-37.95
0.0047900393,0.45026368,9.6615095,0.0045823846,6.8716053E-4,-0.0026357113,25.800001,-6.6000004,-37.65
-0.033530276,0.3544629,9.704619,0.0061802813,-0.003041265,0.008549565,25.800001,-6.0,-40.5
-0.0047900393,0.3305127,9.68067,0.0035171201,-9.1073615E-4,-0.0031683436,24.900002,-5.4,-37.5
-0.047900394,0.27303225,9.69504,3.2132678E-4,-0.0035738973,0.0032232432,24.750002,-5.25,-39.300003
-0.09101075,0.364043,9.618399,0.0024518557,6.8716053E-4,2.744983E-5,23.1,-5.25,-39.300003
0.05748047,0.3544629,9.68067,-7.439377E-4,1.545283E-4,-0.0037009758,26.550001,-6.3,-38.850002
0.0047900393,0.4023633,9.72378,-0.0044723633,-0.0073023224,-0.0074294014,24.750002,-4.9500003,-39.75
-0.043110352,0.364043,9.6758795,-0.0012765699,-0.0025086328,-5.051824E-4,25.500002,-5.55,-38.850002
0.05269043,0.3784131,9.68067,0.0013865912,6.8716053E-4,0.005353772,24.6,-4.5,-39.45
0.038320314,0.34967285,9.718989,-2.1130547E-4,0.0012197928,0.0021579787,25.500002,-6.0,-38.850002
0.014370117,0.4167334,9.651929,0.002984488,0.0012197928,5.6008203E-4,25.500002,-4.9500003,-39.300003
0.023950197,0.39278322,9.651929,0.0035171201,-9.1073615E-4,0.0032232432,24.900002,-5.8500004,-38.25
0.023950197,0.44547364,9.6615095,0.005647649,0.0012197928,-0.0026357113,25.650002,-5.4,-38.7
-0.014370117,0.3784131,9.685459,0.004575865,-0.006244302,0.0026916147,24.750002,-4.65,-39.300003
-0.043110352,0.37362307,9.632769,0.0029779684,0.003343078,-0.0031673398,25.35,-5.1000004,-38.25
0.06227051,0.29698244,9.699829,0.0019127039,6.79917E-4,0.003224247,24.150002,-5.25,-38.850002
0.0,0.4167334,9.733359,-0.005011515,-0.004113773,-0.0031673398,25.650002,-4.8,-38.25
0.047900394,0.44547364,9.685459,3.1480717E-4,0.0017451814,-0.0031673398,25.800001,-7.05,-38.550003
0.06706055,0.364043,9.75252,3.1480717E-4,6.79917E-4,2.8453594E-5,26.400002,-5.4,-37.95
0.019160157,0.40715334,9.699829,8.474394E-4,1.4728477E-4,0.0026916147,24.45,-4.9500003,-38.850002
-0.023950197,0.4023633,9.70941,-2.1782504E-4,0.007604136,0.0010937181,24.300001,-5.1000004,-39.45
-0.023950197,0.32572266,9.77647,-0.004478883,-0.006776934,0.0037568791,25.35,-5.4,-39.15
0.043110352,0.4023633,9.72857,-0.002880986,0.0022778136,-0.001569443,24.6,-4.8,-38.7
0.043110352,0.3784131,9.699829,-0.0023483539,-0.001450612,-0.0074283974,23.85,-6.0,-37.65
0.009580079,0.4263135,9.70941,0.0029779684,-0.004113773,0.003224247,25.35,-5.1000004,-39.15
-0.028740235,0.364043,9.68067,8.474394E-4,0.0017451814,2.8453594E-5,25.650002,-5.4,-37.95
-0.014370117,0.4023633,9.637559,8.474394E-4,1.4728477E-4,0.0021589824,25.650002,-5.8500004,-39.45
-0.05269043,0.3879932,9.690249,-0.0055441475,-0.0030485087,0.003224247,25.35,-5.8500004,-37.5
0.023950197,0.34009278,9.627979,0.0013800716,-9.179797E-4,0.003224247,24.300001,-5.1000004,-39.9
-0.028740235,0.3161426,9.666299,0.007239026,0.0017451814,0.0037568791,24.750002,-5.25,-38.550003
-0.033530276,0.364043,9.6758795,-2.1782504E-4,0.0044083428,2.8453594E-5,24.45,-5.55,-38.850002
0.028740235,0.46942386,9.7142,-2.1782504E-4,-0.0025158764,-5.0417864E-4,24.900002,-6.4500003,-38.25
0.0,0.34488282,9.78605,-0.003946251,0.003343078,2.8453594E-5,24.300001,-5.1000004,-39.15
0.05269043,0.2921924,9.699829,0.0013800716,0.0017451814,2.8453594E-5,24.0,-5.4,-39.15
0.019160157,0.32093263,9.733359,-0.0060767797,0.005473607,-0.0047652363,24.900002,-4.8,-38.7
0.014370117,0.32093263,9.656719,0.0013800716,0.0012125492,0.0037568791,24.45,-6.0,-39.300003
0.009580079,0.3544629,9.74294,-0.0028620793,-0.0030275024,0.003221336,24.45,-4.65,-38.850002
-0.0047900393,0.36883304,9.6615095,3.3371398E-4,-0.0024948702,-0.003702883,24.750002,-6.0,-39.300003
-0.014370117,0.42152345,9.685459,-0.0049926084,-0.0024948702,-0.003702883,25.500002,-5.25,-38.550003
0.028740235,0.33530274,9.72378,-0.002329447,0.0017661876,0.0037539683,24.300001,-5.4,-38.7
-0.043110352,0.4023633,9.74294,0.002464243,0.0022988198,0.0016234394,25.800001,-5.25,-38.550003
-0.014370117,0.39757326,9.666299,0.0045947717,0.0022988198,0.003221336,24.900002,-4.5,-39.45
0.0,0.3784131,9.73815,0.0019316106,0.0017661876,-0.001572354,24.6,-5.1000004,-38.7
-0.009580079,0.27303225,9.666299,0.0029968752,0.0044293487,5.581749E-4,24.900002,-6.15,-39.45
-0.009580079,0.3544629,9.642349,0.0040621394,0.0033640843,0.0037539683,24.45,-4.9500003,-38.850002
0.05269043,0.34488282,9.671089,3.3371398E-4,0.0012335554,0.0010908071,24.6,-5.4,-39.45
-0.0047900393,0.35925296,9.7142,-0.008188401,0.002831452,-0.0021049862,24.150002,-4.65,-38.850002
-0.0047900393,0.34967285,9.671089,0.0045947717,0.0022988198,-0.0031702507,24.6,-6.4500003,-39.15
-0.038320314,0.3544629,9.623189,-0.0033947115,0.0017661876,-0.001572354,25.650002,-5.8500004,-38.7
-0.0047900393,0.34488282,9.64714,-0.001796815,-0.0014296058,-5.0708954E-4,24.6,-5.4,-38.7
-0.05269043,0.43110353,9.77168,-7.315505E-4,0.0022988198,-0.001572354,25.35,-5.4,-39.15
-0.023950197,0.3161426,9.74294,-0.0012641827,-3.643413E-4,5.581749E-4,23.85,-6.0,-38.850002
0.009580079,0.3544629,9.656719,8.663462E-4,0.0012335554,0.0037539683,25.2,-6.0,-37.350002
0.0,0.39757326,9.690249,-7.315505E-4,0.0022988198,2.554268E-5,25.2,-4.65,-39.300003
-0.014370117,0.45026368,9.685459,-7.315505E-4,0.0033640843,-5.0708954E-4,24.750002,-4.9500003,-37.65
0.07664063,0.36883304,9.7142,-0.0033947115,-8.9697354E-4,-5.0708954E-4,25.2,-6.3,-39.75
0.0,0.41194338,9.685459,-0.0049926084,-0.0014296058,0.0026887038,26.1,-5.55,-39.300003
-0.023950197,0.3305127,9.690249,-0.0071231374,-0.001962238,5.581749E-4,25.35,-5.8500004,-39.15
0.038320314,0.33530274,9.6758795,-0.001796815,1.6829092E-4,-0.0010397218,24.750002,-5.55,-37.65
-0.033530276,0.38320315,9.704619,0.0019316106,-0.0024948702,-0.0026376185,25.95,-5.4,-39.15
0.06227051,0.4263135,9.70941,3.3371398E-4,0.0038967165,-0.0042355154,25.35,-6.15,-38.7
0.028740235,0.32093263,9.70941,0.0019316106,-0.0056906636,-0.001572354,26.550001,-5.55,-38.550003
0.019160157,0.35925296,9.73815,-0.0028620793,-0.0056906636,-0.001572354,25.800001,-5.25,-40.050003
0.05269043,0.38320315,9.75731,-1.9891825E-4,0.0012335554,-0.001572354,24.6,-5.4,-37.5
0.09101075,0.39757326,9.74773,-0.0028620793,1.6829092E-4,-0.0031702507,24.750002,-6.0,-38.100002
0.009580079,0.32572266,9.72857,-0.0028620793,-0.006223296,0.003221336,24.45,-5.25,-38.550003
0.0047900393,0.32572266,9.78605,-7.315505E-4,0.0017661876,5.581749E-4,24.6,-5.4,-38.25
-0.0047900393,0.3544629,9.68067,0.0045947717,0.004961981,0.0069497614,24.150002,-5.55,-38.550003
-0.009580079,0.32572266,9.690249,-0.0012641827,-0.0056906636,0.0016234394,25.2,-5.55,-38.550003
0.0,0.40715334,9.685459,0.0067253006,0.0033640843,-5.0708954E-4,26.1,-7.65,-39.75
0.0,0.34009278,9.651929,-0.0055252407,0.0017661876,0.0016234394,25.800001,-5.25,-39.300003
-0.028740235,0.34009278,9.7142,0.005660036,0.004961981,-0.0026376185,24.750002,-4.9500003,-36.45
-0.05748047,0.38320315,9.718989,-0.001796815,-0.0024948702,-0.005833412,24.300001,-6.15,-38.7
0.023950197,0.34967285,9.7621,0.0013989784,1.6829092E-4,-0.003702883,24.150002,-4.9500003,-36.9
0.028740235,0.38320315,9.75252,0.0013989784,-3.643413E-4,0.0048192325,24.900002,-5.4,-38.7
0.028740235,0.32093263,9.72857,8.663462E-4,0.0022988198,0.0037539683,24.45,-6.0,-38.550003
0.038320314,0.39757326,9.704619,0.0067253006,7.0092315E-4,-0.0021049862,25.35,-5.8500004,-38.7
0.043110352,0.34488282,9.6758795,3.3371398E-4,-0.0035601347,-0.0031702507,25.500002,-4.65,-36.9
-0.033530276,0.3879932,9.690249,0.0019316106,7.0092315E-4,-0.0021049862,25.2,-6.0,-39.300003
-0.023950197,0.3544629,9.73815,-0.006057873,-0.0014296058,0.006417129,24.6,-6.15,-37.050003
0.009580079,0.36883304,9.6615095,-7.315505E-4,0.004961981,0.003221336,25.500002,-5.25,-36.9
0.019160157,0.35925296,9.68067,0.005660036,0.0038967165,-0.0031702507,24.6,-4.05,-38.7
0.0,0.40715334,9.800421,-0.0012609229,0.001237177,0.003220834,25.650002,-5.8500004,-39.9
0.07185059,0.34967285,9.632769,-1.9565846E-4,-3.6071957E-4,-0.0015728559,25.500002,-5.55,-39.300003
0.0047900393,0.35925296,9.699829,-0.0028588197,0.0017698093,0.003220834,24.45,-6.3,-38.550003
-0.009580079,0.364043,9.637559,-0.0028588197,-0.0014259841,-0.004236017,25.95,-5.4,-37.5
-0.033530276,0.39757326,9.690249,3.3697375E-4,-0.003556513,5.5767305E-4,25.35,-5.4,-39.9
-0.019160157,0.41194338,9.70941,-7.282907E-4,-3.6071957E-4,-0.0010402236,24.6,-5.1000004,-38.7
-0.05269043,0.3784131,9.685459,-0.0012609229,-0.004621777,-0.0021054882,25.800001,-4.65,-38.850002
-0.047900394,0.364043,9.6758795,-0.0049893484,0.0023024415,-0.004236017,24.750002,-5.25,-39.75
0.009580079,0.39757326,9.6758795,0.003532767,0.005498235,0.0021555696,25.800001,-6.6000004,-38.850002
-0.009580079,0.36883304,9.70941,-0.0055219806,0.004965603,-0.0021054882,24.300001,-4.8,-38.25
0.019160157,0.364043,9.733359,0.0061959284,-8.933518E-4,5.5767305E-4,25.800001,-7.65,-38.550003
-0.038320314,0.37362307,9.6615095,-0.0071198773,-3.6071957E-4,-0.0031707527,24.45,-5.55,-38.850002
-0.043110352,0.38320315,9.6615095,0.0045980318,-0.004089145,0.0010903053,24.750002,-4.9500003,-38.850002
0.0,0.4406836,9.75252,0.0014022383,-0.007284938,-0.0026381204,24.45,-4.65,-39.75
0.047900394,0.3784131,9.613608,0.003532767,-0.004089145,0.0026882018,25.35,-5.1000004,-39.45
0.023950197,0.3784131,9.718989,-0.0055219806,-8.933518E-4,-0.0026381204,24.6,-5.4,-37.95
0.0,0.3305127,9.666299,-0.0012609229,1.7191266E-4,0.0026882018,24.900002,-6.4500003,-37.050003
-0.009580079,0.34009278,9.73815,-0.004456716,-8.933518E-4,-0.0010402236,25.2,-5.25,-39.75
0.05269043,0.4023633,9.64714,0.0014022383,0.0060308673,5.5767305E-4,24.6,-5.8500004,-38.25
0.05748047,0.3784131,9.69504,0.0014022383,0.003367706,0.003220834,25.2,-6.3,-37.65
0.033530276,0.34967285,9.72378,-1.9565846E-4,-3.6071957E-4,-0.0010402236,25.500002,-5.25,-39.75
0.05269043,0.37362307,9.79084,-0.0023261874,-8.933518E-4,0.0016229375,24.900002,-5.1000004,-38.25
0.043110352,0.43589357,9.632769,0.003532767,-0.0019586163,-5.075914E-4,25.95,-5.1000004,-39.15
-0.023950197,0.39278322,9.77647,-0.003391452,0.0023024415,0.0021555696,24.45,-4.65,-38.850002
-0.0047900393,0.3879932,9.699829,0.0056698155,0.0012444207,-0.0026391242,25.35,-4.8,-38.7
0.028740235,0.34009278,9.6615095,-0.0017870355,1.791562E-4,-0.004769653,25.650002,-5.1000004,-37.5
0.019160157,0.39278322,9.72378,-7.217711E-4,0.002309685,0.0053503592,24.6,-4.8,-39.9
0.07185059,0.39278322,9.733359,0.0035392868,1.791562E-4,0.0010893015,25.2,-4.65,-38.850002
0.0,0.3544629,9.68067,0.00886561,0.0055054785,0.002687198,26.400002,-5.8500004,-38.7
-0.033530276,0.4023633,9.72378,0.0030066546,0.0060381107,-5.085952E-4,24.750002,-5.25,-39.300003
0.0,0.3784131,9.70941,-0.0033849322,0.0028423173,0.002687198,26.1,-5.25,-38.100002
-0.023950197,0.32093263,9.704619,0.0035392868,0.0033749496,-0.0010412274,24.0,-4.05,-39.15
0.0,0.2921924,9.699829,0.0056698155,7.117884E-4,0.0037524626,24.45,-4.9500003,-38.550003
0.05748047,0.3784131,9.699829,-1.8913887E-4,7.117884E-4,-0.0015738596,24.6,-5.4,-39.45
0.023950197,0.34009278,9.7142,0.0035392868,1.791562E-4,0.004285095,25.95,-5.1000004,-37.5
-0.043110352,0.32093263,9.733359,-7.217711E-4,0.007103375,0.0032198303,25.650002,-6.4500003,-38.7
0.023950197,0.35925296,9.75252,3.4349336E-4,0.0017770529,5.5666926E-4,25.35,-6.4500003,-36.75
0.07664063,0.364043,9.70941,0.004604551,0.0012444207,2.4037035E-5,24.300001,-4.05,-39.45
0.038320314,0.34967285,9.690249,-0.0039175646,7.117884E-4,-0.010095974,26.550001,-6.3,-38.100002
0.06227051,0.35925296,9.74294,-0.0028523,0.0017770529,0.0037524626,25.2,-5.25,-36.9
-0.023950197,0.38320315,9.733359,0.0024740223,0.0028423173,5.5666926E-4,24.900002,-4.8,-37.95
0.0047900393,0.45984375,9.70941,0.0024740223,0.0028423173,0.0021545659,25.500002,-5.25,-38.100002
-0.009580079,0.39278322,9.6758795,-7.217711E-4,-0.002484005,0.0016219338,24.900002,-3.7500002,-37.95
-0.0047900393,0.28261232,9.74294,0.0014087579,0.0028423173,2.4037035E-5,24.300001,-5.1000004,-37.5
-0.023950197,0.34488282,9.671089,0.0030066546,7.117884E-4,-0.0015738596,24.0,-3.7500002,-39.15
0.043110352,0.36883304,9.72378,0.007800344,-0.0030166372,0.00801352,25.95,-5.4,-37.95
0.0,0.34488282,9.666299,-0.0023196677,-0.005147166,2.4037035E-5,24.900002,-5.4,-39.9
0.009580079,0.4167334,9.74294,-0.0039123488,-0.0014129457,0.0010884985,24.750002,-6.0,-38.550003
0.009580079,0.34009278,9.69504,-0.0076407744,0.0039133765,-5.093982E-4,25.35,-5.8500004,-39.45
-0.023950197,0.36883304,9.733359,-0.004444981,-0.0035434747,2.3234026E-5,24.150002,-5.55,-38.100002
0.019160157,0.42152345,9.68067,0.0014139735,7.175832E-4,0.004816924,25.35,-6.15,-38.7
-0.014370117,0.42152345,9.6758795,-0.0012491876,-0.0024782103,-0.007966249,24.6,-3.7500002,-38.25
0.009580079,0.28261232,9.704619,-0.004444981,0.004978641,0.0010884985,25.2,-4.65,-38.550003
0.038320314,0.3544629,9.651929,0.004609767,0.0033807443,-0.0031725594,25.800001,-4.9500003,-37.65
0.0047900393,0.38320315,9.74294,0.0040771347,0.007641802,0.004284292,24.150002,-4.9500003,-40.050003
0.06706055,0.49337405,9.718989,-0.0060428777,-0.008869797,-0.0042378237,24.6,-5.4,-38.25
0.0047900393,0.42152345,9.68067,-0.0017818199,-0.0051413714,0.0037516595,24.750002,-5.25,-38.550003
-0.023950197,0.3065625,9.627979,-1.839232E-4,-0.0030108425,0.0021537628,24.900002,-4.8,-39.15
0.019160157,0.35925296,9.718989,-0.004444981,-0.004608739,-0.0015746626,26.1,-6.6000004,-38.550003
0.023950197,0.33530274,9.690249,8.813413E-4,-0.0019455779,0.0016211307,25.500002,-6.0,-39.75
0.09101075,0.32093263,9.666299,0.0030118702,0.0065765376,0.0016211307,25.35,-4.5,-38.7
-0.0047900393,0.29698244,9.72857,0.002479238,-0.0056740036,0.0016211307,25.500002,-5.55,-38.100002
-0.05748047,0.42152345,9.685459,0.0035445024,-0.004608739,5.558663E-4,24.45,-4.9500003,-38.100002
-0.009580079,0.3305127,9.70941,0.0019466057,0.0060439054,5.558663E-4,24.300001,-6.15,-40.350002
-0.06227051,0.30177248,9.69504,-0.00657551,-0.0030108425,0.0016211307,25.95,-6.15,-37.95
-0.038320314,0.2921924,9.699829,-0.0017818199,0.0033807443,5.558663E-4,25.2,-6.0,-38.850002
-0.038320314,0.4263135,9.718989,-0.0033797165,0.0012502155,0.004816924,24.900002,-7.2000003,-37.050003
0.043110352,0.4406836,9.704619,0.002479238,0.0012502155,-0.0010420304,25.500002,-4.65,-38.100002
0.0047900393,0.35925296,9.70941,-0.0012491876,-0.0019455779,-0.0015746626,25.35,-5.4,-37.95
0.0047900393,0.4263135,9.704619,-0.0055102454,1.84951E-4,0.0016211307,24.6,-4.8,-39.45
0.033530276,0.41194338,9.704619,-0.0022916335,-8.549612E-4,-0.0074371304,24.900002,-5.1000004,-38.25
0.009580079,0.34009278,9.7142,-0.003356898,-0.005648651,-0.0026434404,25.2,-4.65,-38.850002
-0.0047900393,0.3784131,9.690249,-0.0012263691,-0.0024528578,-0.004241337,24.900002,-5.1000004,-37.5
0.009580079,0.29698244,9.718989,0.0014367921,0.0023408323,1.9720856E-5,25.95,-5.8500004,-41.550003
-0.05269043,0.4167334,9.718989,3.7152757E-4,-0.00298549,-0.0026434404,24.6,-4.8,-39.15
0.0,0.40715334,9.671089,-0.0017590013,0.0034060967,0.0021502497,24.150002,-6.3,-39.300003
0.0,0.3784131,9.64714,-0.0017590013,0.004471361,-0.0031760726,24.750002,-4.2000003,-39.75
0.019160157,0.40715334,9.651929,3.7152757E-4,0.0023408323,-5.1291136E-4,25.650002,-4.8,-37.95
0.043110352,0.34967285,9.69504,9.041598E-4,0.0023408323,0.0010849853,24.300001,-5.4,-38.7
-0.06227051,0.38320315,9.690249,0.004099953,-0.0040507545,-0.0021108082,26.1,-5.55,-38.550003
0.019160157,0.38320315,9.656719,0.0030346888,0.0018081999,5.523531E-4,24.300001,-6.15,-39.45
0.019160157,0.3784131,9.69504,-6.937369E-4,0.0023408323,0.002682882,23.400002,-4.2000003,-39.300003
0.0,0.4167334,9.6758795,-1.6110465E-4,0.004471361,0.0016176176,25.800001,-5.25,-38.100002
-0.009580079,0.38320315,9.6615095,-0.004954795,-0.005648651,-0.0026434404,25.35,-4.05,-38.25
-0.014370117,0.364043,9.685459,-6.937369E-4,-0.0024528578,-0.004241337,25.500002,-6.0,-38.550003
-0.009580079,0.35925296,9.72857,-6.937369E-4,-0.0013875935,0.005346043,24.750002,-6.3,-37.350002
-0.038320314,0.40715334,9.6615095,-6.937369E-4,-0.0013875935,-5.1291136E-4,25.500002,-4.2000003,-38.100002
-0.009580079,0.38320315,9.627979,-1.6110465E-4,0.003938729,-0.0010455436,25.2,-3.9,-38.850002
-0.07664063,0.39757326,9.685459,0.0014367921,2.1030323E-4,-0.0037087048,24.45,-5.55,-38.550003
-0.06227051,0.35925296,9.699829,-1.6110465E-4,7.4293546E-4,-5.1291136E-4,25.500002,-6.6000004,-37.350002
0.043110352,0.364043,9.671089,-0.004954795,0.0023408323,0.002682882,25.2,-4.9500003,-38.850002
0.05269043,0.32093263,9.6758795,-1.6110465E-4,-8.549612E-4,5.523531E-4,24.900002,-4.5,-39.15
0.014370117,0.364043,9.7142,-0.0012263691,0.0050039934,0.0032155141,24.6,-6.4500003,-38.25
0.023950197,0.3305127,9.72378,-0.006029187,-0.0061914246,5.5375835E-4,25.2,-5.25,-38.550003
-0.019160157,0.41194338,9.666299,-0.0028333932,-8.651021E-4,0.004814816,24.300001,-5.4,-37.95
-0.07664063,0.3879932,9.7142,0.0014276647,-0.002995631,-5.115061E-4,24.900002,-5.4,-37.5
0.1101709,0.34009278,9.718989,0.0035581936,-8.651021E-4,0.0037495517,25.2,-5.55,-38.550003
0.014370117,0.3544629,9.6615095,-0.0017681287,-8.651021E-4,0.0010863906,25.650002,-5.8500004,-38.25
-0.0047900393,0.35925296,9.699829,-0.0038986576,0.0012654269,-0.005305196,25.800001,-4.9500003,-37.350002
0.023950197,0.34967285,9.627979,3.6240014E-4,-0.0056587923,-0.0042399317,25.2,-6.0,-38.100002
-0.019160157,0.42152345,9.637559,-7.028643E-4,-0.00512616,-0.002642035,24.900002,-6.15,-38.25
0.0,0.34009278,9.69504,3.6240014E-4,0.0023306913,2.1126123E-5,24.0,-5.4,-37.95
0.0,0.34488282,9.72857,3.6240014E-4,0.004993852,-0.005305196,25.2,-5.25,-38.550003
0.0,0.33530274,9.685459,0.0040908256,0.003928588,0.0016190228,25.650002,-5.8500004,-39.15
0.009580079,0.34009278,9.68067,-0.0028333932,0.0012654269,-0.004772564,24.45,-7.05,-39.300003
0.0,0.3161426,9.72378,-0.0017681287,0.00446122,5.5375835E-4,24.45,-4.2000003,-38.550003
-0.038320314,0.44547364,9.68067,0.009417148,-8.651021E-4,-5.115061E-4,24.900002,-6.7500005,-37.5
0.0,0.38320315,9.72857,0.0030255613,0.008189646,-5.115061E-4,25.500002,-5.55,-37.65
-0.019160157,0.4263135,9.74294,-0.0038986576,2.0016235E-4,0.0026842873,25.650002,-6.15,-39.9
-0.023950197,0.35925296,9.75731,0.002492929,-0.00512616,-5.115061E-4,24.45,-5.25,-38.550003
0.043110352,0.35925296,9.718989,0.0035581936,-8.651021E-4,5.5375835E-4,25.500002,-4.9500003,-38.100002
0.038320314,0.27303225,9.64714,-0.00443129,0.0033959558,5.5375835E-4,25.35,-5.8500004,-38.7
-0.05269043,0.38320315,9.64714,0.0035581936,0.00446122,-0.0010441383,24.45,-5.25,-37.65
0.043110352,0.35925296,9.733359,0.004623458,0.0023306913,-0.0021094028,24.45,-6.6000004,-38.550003
0.086220704,0.39757326,9.704619,-0.0033660254,7.327946E-4,-5.115061E-4,24.150002,-4.9500003,-37.65
0.019160157,0.4023633,9.72378,0.0014276647,-3.3246988E-4,0.0010863906,25.650002,-5.1000004,-38.25
0.0047900393,0.39278322,9.68067,-0.0065539954,-0.0019216744,-0.003708504,25.500002,-5.55,-38.850002
-0.09101075,0.3784131,9.6615095,0.003566017,0.0018067512,-0.0021106072,25.650002,-6.4500003,-38.25
0.023950197,0.3879932,9.632769,0.0019681202,-3.2377767E-4,5.5255386E-4,23.85,-5.55,-38.550003
0.023950197,0.34488282,9.6758795,-8.7662425E-5,0.0033688978,-4.478549E-4,25.35,-4.5,-37.95
0.06706055,0.32093263,9.704619,-0.003816088,-8.921599E-4,6.174096E-4,25.2,-6.0,-38.550003
0.033530276,0.3879932,9.766891,0.003108131,-8.921599E-4,0.0027479385,24.6,-5.4,-37.95
-0.019160157,0.34967285,9.69504,-0.003816088,0.0044341623,-0.0015131193,24.0,-5.1000004,-39.15
-0.038320314,0.31135255,9.75252,-0.0043487204,0.006564691,-0.0015131193,24.45,-4.9500003,-37.65
0.0047900393,0.39278322,9.64714,-6.2029465E-4,0.009227852,0.0011500418,24.900002,-5.8500004,-38.25
0.019160157,0.28261232,9.685459,0.0047060275,0.0054994267,-0.0015131193,24.6,-5.4,-38.25
0.033530276,0.39278322,9.699829,0.0052386597,-0.0046205856,-0.0020457515,24.45,-3.9,-38.100002
0.033530276,0.3784131,9.718989,0.0015102343,0.016684704,-0.0015131193,24.300001,-4.5,-39.15
0.043110352,0.38320315,9.72857,0.0036407632,0.001238369,-0.0020457515,24.0,-4.5,-37.95
0.033530276,0.39278322,9.7621,-0.0011529268,-0.0040879534,-0.0047089127,23.400002,-5.25,-38.100002
0.009580079,0.34967285,9.671089,-0.0048813527,0.0017710013,0.0048784674,25.2,-6.0,-38.550003
0.019160157,0.34967285,9.718989,-0.005946617,-0.005153218,0.004345835,24.750002,-6.0,-37.65
-0.023950197,0.35925296,9.651929,0.0015102343,-0.0067511145,0.0032805707,24.6,-4.8,-39.45
0.0047900393,0.4023633,9.699829,-0.005413985,-0.0040879534,6.174096E-4,24.6,-4.5,-39.15
0.0047900393,0.4167334,9.69504,0.0036407632,-0.0024900567,-4.478549E-4,24.45,-4.9500003,-38.550003
0.081430666,0.3784131,9.666299,-0.0022181913,1.7310458E-4,-0.0015131193,26.400002,-5.8500004,-38.7
-0.0047900393,0.32093263,9.671089,0.006303924,0.0033688978,-0.0025783838,26.400002,-6.15,-38.7
0.0047900393,0.40715334,9.6615095,-0.001685559,-0.0019574245,-0.0020457515,25.650002,-5.4,-39.45
0.009580079,0.4167334,9.671089,-0.0032834557,-3.5952765E-4,-0.0036436482,25.500002,-4.9500003,-38.550003
0.043110352,0.25866213,9.74294,9.776021E-4,-0.008881643,-0.009502603,24.750002,-6.6000004,-38.550003
0.5891748,0.17244141,9.64714,0.003696899,-0.009886903,-0.05265276,25.500002,-4.65,-37.65
5.9204884,-0.74724615,9.934542,0.023936924,0.035386834,-1.5291092,24.900002,-5.4,-39.45
0.4742139,-0.79993653,9.671089,0.019143233,-0.02107218,-2.8819952,23.85,-5.25,-38.550003
-2.4620802,0.8286768,9.64714,0.01807797,-0.02107218,-2.471336,24.6,-3.45,-39.45
-2.7638526,1.7866846,9.70941,0.009023222,-0.0066911094,-1.4891618,24.6,-3.45,-38.7
-1.4897022,1.4849122,9.685459,0.003696899,7.657418E-4,-0.48355225,24.300001,-1.6500001,-39.45
0.5125342,0.28261232,9.69504,0.0026316345,-0.0066911094,-0.45212695,23.85,-1.5,-38.100002
0.43589357,0.488584,9.70941,0.004229531,-0.00935427,-0.68435454,24.45,-0.90000004,-39.300003
0.5604346,-0.15328126,9.7142,0.0047621634,-0.008289007,-0.8308284,24.300001,-0.75,-38.7
0.7711963,-0.0047900393,9.72857,0.0074253245,-0.009886903,-1.0417508,23.400002,-1.2,-38.850002
0.8861573,0.20118165,9.666299,0.0052947956,-0.007756374,-1.276109,23.25,0.3,-39.45
1.1304493,0.39278322,9.685459,-5.641588E-4,-0.029061664,-1.6718547,22.5,-0.6,-38.550003
0.3544629,0.45505372,9.6615095,0.005827428,-0.026398502,-1.9339098,23.25,1.35,-38.7
-0.6179151,0.41194338,9.608819,0.009555854,-0.021604814,-1.8502865,22.5,1.5,-37.65
-0.33530274,0.68976563,9.6758795,0.009023222,-0.019474283,-1.6665283,21.900002,1.95,-38.25
0.1101709,0.52690434,9.666299,0.012219015,-0.015745856,-1.6414946,22.2,2.7,-39.45
0.50774413,-0.1820215,9.69504,0.010088486,-0.018941652,-1.7980886,21.75,3.9,-38.550003
0.014370117,-0.043110352,9.74773,0.0047621634,-0.026931133,-1.9094087,21.75,3.9,-38.550003
0.10538086,-0.21555176,9.72378,0.0074253245,-0.024267972,-1.939236,20.1,5.55,-38.850002
0.25387207,-0.34009278,9.7142,0.011686383,-0.01627849,-1.9301814,20.25,4.8,-38.25
-0.22992188,-0.12454102,9.685459,0.017545337,-0.01627849,-1.914735,19.050001,4.9500003,-39.300003
-0.67539555,0.100590825,9.74773,0.009023222,-0.013615328,-1.7954254,18.150002,6.7500005,-38.7
-0.19160157,-0.17723145,9.6615095,0.009023222,-0.015213224,-1.7315096,17.85,8.55,-38.7
0.081430666,0.16286133,9.6615095,0.015406681,-0.007765061,-1.7554771,17.400002,7.65,-39.300003
-0.24908204,0.32093263,9.671089,0.010080358,-0.002438739,-1.6995506,17.85,7.05,-37.5
0.23950197,0.047900394,9.690249,0.010080358,0.009811803,-1.7038116,15.900001,8.55,-37.95
-0.2778223,0.10538086,9.642349,0.01274352,0.01833392,-1.848155,15.6,8.700001,-38.550003
-0.3065625,0.41194338,9.733359,0.011678255,0.039639205,-1.6958222,15.450001,8.55,-37.95
0.7807764,0.48379397,9.69504,0.025526693,0.049226586,-1.7725213,15.3,10.05,-38.550003
1.0394385,0.2682422,9.699829,0.025526693,0.03324762,-2.1821153,14.700001,11.1,-37.350002
-0.847837,-0.43589357,9.800421,0.03191828,0.038573943,-2.1991596,13.500001,12.150001,-39.15
0.2778223,-0.5748047,9.613608,0.02978775,0.044432897,-2.1134057,12.750001,11.55,-37.5
-0.45505372,-0.18681154,9.627979,0.03351618,0.05402028,-2.2726629,11.400001,12.150001,-38.7
-1.456172,0.39757326,9.666299,0.037777238,0.051889747,-2.0106077,10.950001,11.700001,-38.100002
-0.34488282,0.68976563,9.656719,0.032983545,0.016736021,-1.7288454,10.35,11.55,-36.75
0.34009278,0.60354495,9.78605,0.039375134,0.008213906,-1.7554771,9.900001,13.05,-39.75
0.9148975,0.3065625,9.666299,0.050027777,0.019931816,-2.2241933,9.900001,12.750001,-36.9
-0.5221143,-0.57001466,9.642349,0.047364615,0.0412371,-2.4249957,8.25,12.450001,-37.65
-0.6658155,-0.3784131,9.77168,0.04363619,0.019399183,-2.3083491,7.2000003,14.1,-40.050003
-1.4178516,0.5939649,9.814791,0.04789725,0.024192873,-1.9898353,6.7500005,13.950001,-39.45
-0.38320315,0.38320315,9.627979,0.042038295,0.058813967,-1.6904958,4.5,15.150001,-38.850002
0.34009278,0.48379397,9.733359,0.047364615,0.028986564,-1.7512159,3.6000001,13.950001,-37.95
0.6227051,0.038320314,9.80521,0.04896251,-0.019482968,-2.0415003,4.3500004,14.250001,-37.95
-0.32093263,-0.49337405,9.79563,0.052158307,-0.04558195,-2.13045,3.45,15.150001,-39.75
-2.078877,-0.21555176,9.627979,0.04576672,-0.030135615,-1.6191232,1.95,14.250001,-39.45
0.038320314,0.26345217,9.79563,0.043103557,-0.0072324285,-1.370384,1.2,14.55,-39.15
0.57001466,0.12933107,9.68067,0.04150566,-0.04345142,-1.7373675,0.45000002,14.400001,-38.550003
0.22992188,-0.14849122,9.584868,0.052716672,-0.07271869,-2.0372427,-1.0500001,14.55,-38.25
0.05269043,-0.81909674,9.70941,0.0564451,-0.10254609,-2.211946,-1.0500001,13.950001,-38.25
-0.9532178,-0.7807764,9.651929,0.03567244,-0.10893768,-2.093169,-0.6,12.750001,-38.100002
-0.9053174,0.023950197,9.642349,0.04046613,-0.075381845,-1.7560128,-1.95,14.1,-37.350002
-0.6322852,0.19160157,9.68067,0.030878752,-0.08390396,-1.6686611,-4.05,14.400001,-40.050003
0.014370117,0.44547364,9.82437,0.03300928,-0.09242608,-1.68464,-4.9500003,14.1,-39.300003
1.1448194,-0.32572266,9.74294,0.0399335,-0.10361136,-2.0505586,-4.8,13.650001,-39.9
0.32093263,-1.6238233,9.73815,0.060173523,-0.16859248,-2.4068894,-6.15,12.6,-38.25
-1.2645704,-0.9053174,9.618399,0.023954533,-0.1307756,-2.288645,-6.6000004,13.650001,-37.95
-1.4178516,0.8334668,9.7142,0.0047797724,-0.067392364,-1.9855772,-6.9,13.650001,-39.45
-0.613125,0.8095166,9.78605,0.011703991,-0.034901794,-1.7869054,-8.25,12.6,-37.95
0.081430666,0.6706055,9.74773,0.021824004,-0.046619702,-1.9397708,-9.450001,10.35,-38.550003
-1.2454102,-0.081430666,9.570498,0.011703991,-0.039162852,-1.7682633,-9.450001,11.700001,-38.100002
-0.847837,-0.06706055,9.604029,0.007975565,-0.031706,-1.3149933,-11.25,11.25,-37.95
0.6945557,0.009580079,9.690249,0.0015839789,-0.039162852,-1.3650607,-11.400001,10.35,-38.100002
1.6429834,0.14370118,9.72378,0.007975565,-0.026912311,-1.7075433,-12.0,9.0,-38.550003
-0.1101709,-0.40715334,9.74773,0.011703991,-0.030640736,-2.0660048,-12.450001,9.450001,-38.25
-0.9580079,-0.047900394,9.766891,0.020226106,-0.0061396547,-1.6500189,-12.3,9.0,-37.65
-0.32572266,0.46942386,9.75731,0.014899785,-0.0056070224,-1.6628021,-13.05,9.0,-36.45
-0.86220706,-0.07664063,9.6615095,0.009573462,-0.009335448,-1.5504167,-13.35,6.9,-38.850002
3.4871485,2.8596535,10.279425,0.0074429335,-0.018922828,-2.0558848,-13.650001,6.3,-37.350002
3.0416749,0.6849756,9.575289,0.03300928,-0.077512376,-3.6244867,-14.1,7.05,-37.050003
-2.8931837,-2.1411476,9.6615095,0.020758739,-0.055674452,-3.2527094,-14.85,5.7000003,-36.75
-3.6979103,-0.7711963,9.685459,0.012240686,-0.038093243,-1.813005,-13.950001,4.5,-38.550003
-3.0608351,0.6849756,9.599238,0.0037185713,-0.024777438,-0.9368249,-14.700001,5.25,-39.300003
-0.7376661,0.63707525,9.685459,-0.0032056477,0.0018541723,-0.46438017,-15.3,3.15,-35.7
2.802173,0.3544629,9.6758795,0.0037185713,-0.009331104,-0.94694495,-15.450001,5.1000004,-37.95
1.2166699,-0.4742139,9.75731,0.011175423,-0.028505864,-1.828984,-16.5,3.7500002,-37.95
-0.613125,-0.34967285,9.74294,0.0063817324,-0.032766923,-1.9648052,-14.700001,3.9,-36.9
-1.4226416,0.009580079,9.68067,0.0037185713,-0.03223429,-1.5344384,-16.800001,3.0,-37.5
0.1580713,0.25866213,9.699829,0.005316468,-0.01572269,-1.3719856,-17.7,2.8500001,-38.550003
1.7004639,0.57001466,9.72378,0.011708055,-0.017853219,-1.7959608,-17.1,2.25,-37.65
1.0633887,-0.21555176,9.848321,0.009044894,-0.031169023,-2.3078203,-16.2,3.7500002,-36.75
0.31135255,-0.5843848,9.75252,0.014903848,-0.02797323,-2.5767996,-17.400002,1.8000001,-38.550003
-1.346001,-0.33530274,9.656719,0.01064279,-0.026375335,-2.5118184,-17.85,2.4,-38.7
-1.7771046,0.1820215,9.72378,0.010110158,-0.022114277,-1.7916998,-19.95,1.35,-37.5
0.5412744,0.31135255,9.74773,0.014371215,-0.01305953,-1.7352407,-20.25,1.0500001,-38.7
0.8286768,-0.20597169,9.78605,0.010110158,-0.033299554,-2.256155,-20.7,0.15,-36.45
-0.13891114,-0.25387207,9.671089,0.011175423,-0.023179542,-2.3600183,-21.900002,-1.35,-39.15
-0.6179151,0.06706055,9.651929,0.005316468,-0.021581646,-2.257753,-21.45,-1.2,-37.350002
-0.6227051,0.488584,9.618399,0.0026533068,-0.024244806,-2.1570854,-22.95,-3.45,-37.95
-0.76161623,0.22992188,9.75252,0.0047838357,-0.016255323,-1.8220598,-21.6,-3.45,-38.25
-0.45505372,0.09580079,9.733359,0.011708055,-0.012526899,-1.7517523,-22.800001,-6.0,-38.550003
-1.0490186,-0.047900394,9.637559,0.007446997,-0.024244806,-1.6936954,-23.550001,-7.65,-38.100002
-0.09101075,0.028740235,9.70941,0.003185939,-0.017320588,-1.3203202,-24.0,-8.85,-39.15
1.8010547,0.5221143,9.704619,0.0010554102,-0.029571129,-1.4151287,-23.85,-9.3,-38.100002
-1.6908839,0.038320314,9.666299,5.160054E-4,-0.024784679,-1.4044752,-24.900002,-12.450001,-37.65
0.26345217,0.82388675,9.685459,0.004244431,-0.04023101,0.009663364,-24.0,-13.200001,-38.7
-0.17723145,0.1820215,9.666299,0.0010486376,0.006640623,-0.0015219129,-22.95,-15.3,-37.95
-0.12454102,0.26345217,9.72378,-5.492591E-4,-0.0034793895,0.005402306,-21.45,-13.8,-38.850002
0.09101075,0.21555176,9.704619,-0.0032124203,0.004510094,0.004869674,-23.550001,-15.150001,-36.15
2.8213332,0.09580079,9.78605,0.002113902,0.034337502,-0.06437252,-23.1,-14.1,-38.100002
-2.2273684,-0.1341211,9.685459,0.0058423276,-0.026915208,-1.2798393,-22.050001,-14.1,-38.100002
-0.100590825,-0.038320314,9.642349,0.009570753,-0.0077404473,-1.3405594,-23.25,-15.3,-36.75
-0.5604346,0.19639161,9.75731,0.012233914,-0.013599401,-1.8833116,-23.25,-15.3,-38.7
0.28261232,0.24908204,9.766891,0.011701282,-0.015197298,-2.1187348,-22.5,-16.5,-36.9
-0.19639161,-0.09101075,9.74773,0.015429708,-0.023719413,-2.0787876,-19.2,-19.35,-37.95
0.07664063,-0.46942386,9.656719,0.017027605,-0.030111002,-1.9195306,-20.1,-19.5,-36.45
-0.7185059,0.038320314,9.718989,0.013299179,-0.017327828,-1.814602,-18.300001,-22.5,-36.300003
0.47900394,-0.5604346,9.699829,0.013299179,-0.01786046,-1.8268526,-15.900001,-23.1,-36.300003
0.05748047,-0.2682422,9.642349,0.00637496,-0.016262563,-1.7906336,-13.950001,-23.7,-37.350002
0.14370118,0.09101075,9.7142,0.013831811,-0.014132034,-1.8630716,-15.000001,-25.35,-37.350002
0.40715334,-0.26345217,9.75731,0.0031791665,-0.026382575,-1.9775876,-13.05,-25.050001,-36.9
0.10538086,-0.2778223,9.77647,0.008505489,-0.02052362,-1.8774526,-11.700001,-25.650002,-37.65
-1.0059083,-0.39757326,9.69504,0.01596234,-0.019990988,-1.7853073,-12.150001,-27.6,-37.95
-0.1341211,-0.25387207,9.690249,0.00637496,-0.023719413,-1.9142042,-8.700001,-26.400002,-36.9
0.19639161,-0.1820215,9.6615095,0.009038121,-0.03490469,-2.1309855,-8.700001,-27.750002,-36.45
-0.3784131,-0.009580079,9.6615095,0.014364443,-0.030643633,-2.0249918,-7.05,-27.300001,-35.7
-0.5748047,0.038320314,9.685459,0.01116865,-0.022121517,-1.8273852,-5.8500004,-27.900002,-37.5
0.009580079,-0.25387207,9.666299,0.0148970755,-0.018393092,-1.8311137,-5.1000004,-28.95,-37.95
-0.34009278,-0.37362307,9.642349,0.010633308,-0.02585284,-2.0191324,-4.05,-28.800001,-36.9
-0.38320315,0.2682422,9.685459,0.010633308,-0.03277706,-2.019665,-3.0,-28.800001,-37.65
-0.23950197,0.43110353,9.64714,0.009035412,-0.024254942,-1.8550818,-1.8000001,-27.900002,-38.7
-0.100590825,0.23950197,9.72378,0.009035412,-0.026385471,-1.8060796,-0.90000004,-29.400002,-37.350002
-0.16765137,0.16286133,9.704619,0.009568044,-0.01626546,-1.8177975,1.6500001,-30.900002,-38.7
-0.028740235,-0.09580079,9.685459,0.0063722506,-0.029581266,-1.8497554,0.75,-29.400002,-36.9
0.17244141,0.5460645,9.7621,0.010633308,-0.013602297,-1.6809111,3.6000001,-28.95,-37.95
-0.038320314,0.4406836,9.72857,0.0031764575,-0.017330725,-1.6159298,2.8500001,-29.7,-37.350002
-0.4023633,0.3544629,9.671089,0.012763837,-0.012537033,-1.4646623,4.5,-29.7,-36.9
0.42152345,0.05748047,9.704619,0.013829102,-0.026385471,-1.8827786,4.5,-30.150002,-36.9
0.023950197,-0.14370118,9.642349,0.0063722506,-0.036505483,-2.2119453,6.3,-29.250002,-39.15
-0.613125,-0.22513184,9.704619,0.013829102,-0.036505483,-2.2817202,6.15,-30.45,-38.850002
-0.92926764,-0.35925296,9.623189,5.1329634E-4,-0.019461252,-2.2343159,7.5000005,-29.400002,-37.350002
0.19160157,0.22992188,9.64714,0.0015785608,-0.0024170207,-1.5339046,8.25,-28.050001,-38.100002
0.7951465,-0.31135255,9.73815,0.007437515,-0.02372231,-1.6122015,10.650001,-28.050001,-38.850002
0.57959473,-0.28740236,9.77647,0.0026438253,-0.020526517,-1.6915636,10.05,-28.2,-37.95
0.852627,-0.39757326,9.72378,-0.0032151293,-0.03757075,-1.769328,11.700001,-27.6,-37.95
-0.043110352,0.07664063,9.6758795,-0.013867774,-0.06420236,-1.9775872,12.150001,-27.900002,-38.25
0.16286133,-0.043110352,9.75252,-0.006943555,-0.060473934,-2.0217957,14.700001,-28.050001,-38.100002
2.7399025,-0.85741705,9.69504,0.011698573,-0.022657046,-2.6289964,13.950001,-27.300001,-38.850002
0.12454102,-0.1101709,9.671089,0.0026438253,-0.053017084,-3.3187551,15.3,-28.050001,-37.350002
-1.465752,0.41194338,9.74773,-0.0021498648,-0.03544022,-3.0982454,14.85,-26.550001,-39.15
0.24908204,1.0394385,9.69504,0.0015785608,-0.044494968,-2.8441799,17.7,-25.35,-37.65
0.98195803,0.11496094,9.718989,5.7227107E-6,-0.037543964,-3.1041074,18.6,-23.400002,-39.45
-0.6610254,-0.34009278,9.79563,0.017049953,-0.030087112,-3.4471226,17.85,-23.1,-37.5
-1.9303858,-0.60833496,9.690249,0.0074625737,-0.03967449,-3.3906636,20.550001,-22.5,-37.95
-1.4274317,-0.41194338,9.651929,0.014919425,-0.025826054,-3.0258105,21.300001,-19.800001,-38.25
-1.0106983,0.119750984,9.671089,0.017582586,-0.005586028,-2.5235384,23.1,-18.6,-37.350002
-1.0202783,0.5891748,9.74773,0.01651732,0.0071971454,-2.011146,22.800001,-16.5,-38.100002
-0.60833496,-0.047900394,9.73815,0.022376277,0.030632963,-1.5743877,25.2,-17.550001,-39.300003
0.32572266,-0.014370117,9.690249,0.022376277,0.022110848,-1.6265856,24.45,-16.800001,-38.850002
-0.46463382,0.45026368,9.68067,0.029300494,0.03542665,-1.7411015,24.0,-15.000001,-38.25
-0.977168,0.364043,9.72857,0.019180482,-0.0013249705,-1.4859707,24.750002,-14.1,-39.300003
-0.09580079,-0.22992188,9.7142,0.013321529,-0.00824919,-1.3347032,23.400002,-14.400001,-39.300003
0.6227051,-0.13891114,9.690249,0.007995206,-0.011977615,-1.3560084,23.85,-13.05,-39.300003
-0.847837,0.16765137,9.733359,0.002668884,-0.0061186603,-1.1530756,24.0,-12.900001,-39.15
-0.34488282,-0.07185059,9.766891,0.011723632,-0.02049973,-1.0225806,24.300001,-12.6,-38.25
-0.05269043,0.100590825,9.699829,0.011723632,-0.014108144,-1.0678544,24.150002,-12.750001,-38.850002
-0.22513184,0.67539555,9.79084,0.01651732,-0.0045207636,-1.1946208,23.550001,-12.3,-39.15
0.25866213,0.14370118,9.72378,0.0016036194,-0.01570604,-1.0864966,24.300001,-11.25,-37.95
0.39278322,-0.05748047,9.699829,0.005332045,-0.007716557,-1.0699849,24.6,-10.950001,-37.050003
-0.07185059,0.34488282,9.68067,0.003201516,-0.010379719,-1.0992798,24.6,-9.6,-38.7
-0.17244141,0.3784131,9.766891,0.0074625737,-0.00824919,-1.1679893,26.1,-9.0,-37.350002
-0.8909473,1.1735597,9.632769,0.003201516,-0.015173407,-0.770113,25.800001,-9.0,-38.100002
-0.31135255,0.8382569,9.7142,-5.2690954E-4,-0.011444982,-0.3871504,25.800001,-8.400001,-40.050003
0.5125342,0.17723145,9.7142,-5.2690954E-4,-0.010379719,-0.40472728,24.900002,-8.1,-39.45
1.1256592,0.47900394,9.642349,0.003208966,-0.014100181,-0.6103242,25.35,-9.6,-39.45
-0.14370118,0.16765137,9.70941,0.0026763338,-0.00930649,-0.7594613,24.6,-8.55,-37.5
-0.68976563,0.728086,9.733359,5.458048E-4,-0.019959135,-0.58262736,25.35,-7.2000003,-37.050003
0.9148975,0.40715334,9.7142,-0.009041576,-0.03274231,-0.42976192,24.45,-7.65,-38.550003
0.24908204,0.21555176,9.704619,0.012263713,0.017857753,-0.58262736,25.650002,-7.5000005,-39.45
0.047900394,0.37362307,9.766891,0.011731082,-0.003447536,-0.83243185,26.1,-6.6000004,-38.100002
-1.2358302,0.21555176,9.651929,0.0069373916,-0.018893871,-1.0172553,25.650002,-6.7500005,-39.45
-0.023950197,-0.14849122,9.733359,0.0101331845,-0.003447536,-1.0374954,24.6,-6.15,-39.15
0.09580079,0.5508545,9.77168,0.005339495,-0.020491768,-1.0497459,24.6,-5.1000004,-38.7
-1.1064991,1.3747413,9.73815,0.005872127,-0.007175961,-0.768516,23.85,-6.0,-38.100002
-1.1927198,0.18681154,9.70941,-0.0031826207,-0.006110697,-0.11178047,24.45,-3.9,-38.850002
0.014370117,0.34488282,9.733359,1.3172569E-5,0.0040093153,-0.004188763,23.85,-4.65,-38.550003
-0.019160157,0.37362307,9.69504,1.3172569E-5,0.001346154,0.0043333527,24.900002,-5.4,-37.95
0.043110352,0.35925296,9.685459,-0.0010520918,0.0050745797,0.0038007207,24.6,-5.1000004,-37.5
-0.028740235,0.31135255,9.6615095,-0.0010520918,-2.5174266E-4,0.004865985,25.95,-4.05,-37.050003
-0.047900394,0.34967285,9.69504,-0.003715253,-0.0050454326,-0.0036561305,26.400002,-5.8500004,-39.45
-0.028740235,0.42152345,9.685459,-0.0074436786,-0.011437019,-0.0036561305,25.500002,-3.6000001,-38.100002
0.028740235,0.40715334,9.766891,0.0064047594,-0.006110697,0.0043333527,25.35,-4.5,-37.95
0.019160157,0.32093263,9.77647,1.3172569E-5,-2.5174266E-4,0.0038007207,24.900002,-4.05,-39.15
0.033530276,0.28261232,9.704619,-0.003715253,0.0029440508,0.002202824,24.900002,-4.8,-39.45
-0.023950197,0.29698244,9.74294,-0.003715253,-0.003980168,-0.0031234983,25.2,-3.9,-38.850002
0.009580079,0.40715334,9.733359,0.005339495,-0.0050454326,-4.603372E-4,24.6,-4.5,-38.25
-0.028740235,0.45984375,9.718989,0.007470024,0.0045419475,0.0038007207,25.2,-6.3,-38.850002
0.06706055,0.47900394,9.699829,-0.0010487055,-0.005041813,-0.010580769,24.750002,-4.9500003,-39.75
0.0,0.3544629,9.685459,0.0010818234,0.0024150382,0.002735037,25.2,-4.65,-37.65
0.023950197,0.34967285,9.69504,-0.006375028,0.004012935,0.0032676691,25.500002,-6.3,-38.100002
-0.0047900393,0.364043,9.69504,-0.0010487055,0.0034803026,0.0022024047,24.300001,-4.8,-39.15
-0.0047900393,0.45026368,9.671089,-0.0015813378,2.8450927E-4,-0.0047218143,24.750002,-4.65,-38.850002
0.047900394,0.43110353,9.77168,0.0032123523,-7.807552E-4,-0.0031239176,23.400002,-2.5500002,-37.350002
-0.0047900393,0.3305127,9.704619,5.491911E-4,-0.0023786519,-0.0020586532,24.6,-5.4,-39.15
0.009580079,0.3065625,9.699829,-5.1607337E-4,-0.004509181,-0.0036565498,24.0,-3.7500002,-38.7
-0.06227051,0.29698244,9.704619,-0.0010487055,2.8450927E-4,0.0011371403,24.45,-4.65,-40.050003
0.06227051,0.34009278,9.75731,-0.004244499,-2.4812296E-4,0.007528727,25.2,-4.9500003,-37.65
0.07185059,0.36883304,9.79084,0.0042776167,2.8450927E-4,0.0022024047,24.45,-4.2000003,-38.550003
0.009580079,0.4023633,9.74294,-0.0037118667,0.0034803026,0.0016697726,24.6,-4.8,-38.7
0.023950197,0.37362307,9.699829,-0.0037118667,-0.005041813,-0.0025912854,25.500002,-4.9500003,-38.550003
-0.033530276,0.31135255,9.72857,0.005342881,8.171415E-4,-0.0047218143,24.300001,-4.8,-38.25
0.033530276,0.3544629,9.699829,0.005342881,-2.4812296E-4,6.0450804E-4,24.750002,-5.55,-37.350002
0.019160157,0.37362307,9.690249,0.0016144556,0.001882406,0.005398198,25.35,-4.8,-39.15
0.033530276,0.40715334,9.814791,-0.004244499,-0.002911284,6.0450804E-4,24.300001,-5.1000004,-39.15
-0.06227051,0.42152345,9.72378,0.00267972,-0.0023786519,0.0011371403,24.0,-3.7500002,-37.95
-0.0047900393,0.35925296,9.79084,-0.0053097634,-0.0013133874,-4.6075642E-4,23.400002,-4.2000003,-38.550003
-0.019160157,0.22513184,9.656719,0.0016144556,-0.002911284,0.0043329336,24.750002,-3.6000001,-38.550003
0.019160157,0.3544629,9.72857,1.6558868E-5,8.171415E-4,0.002735037,24.150002,-5.25,-38.850002
0.081430666,0.37362307,9.68067,0.0016144556,-0.002911284,0.0011371403,25.2,-4.2000003,-38.550003
-0.019160157,0.43110353,9.72378,-0.007972924,-0.0013133874,-0.0031239176,24.750002,-3.9,-39.300003
-0.0047900393,0.4023633,9.75252,-0.0010581872,0.002404903,0.0016709463,24.150002,-4.2000003,-39.75
0.009580079,0.3544629,9.6758795,-0.0058518774,0.002404903,-4.5958266E-4,24.750002,-5.25,-38.100002
0.038320314,0.23950197,9.699829,0.0032028705,-7.908903E-4,0.0016709463,24.150002,-4.2000003,-38.850002
0.033530276,0.39757326,9.704619,0.0074639283,2.7437415E-4,0.0022035784,24.0,-4.8,-39.45
0.023950197,0.3879932,9.623189,0.009061825,0.0013396386,0.0032688428,23.400002,-4.2000003,-38.100002
-0.081430666,0.5125342,9.699829,0.002137606,-2.5825808E-4,-0.004188008,26.1,-4.65,-38.850002
-0.13891114,0.33530274,9.70941,0.002137606,0.002404903,-9.922149E-4,24.0,-5.1000004,-40.350002
-0.038320314,0.28740236,9.6758795,0.0037355027,2.7437415E-4,-0.0020574795,24.0,-4.5,-38.25
0.019160157,0.3305127,9.73815,-5.25555E-4,-0.0077151093,-9.922149E-4,26.1,-4.65,-38.850002
0.086220704,0.45026368,9.7142,0.0010723417,-0.0077151093,0.0022035784,25.2,-3.3000002,-39.75
0.05269043,0.39278322,9.656719,-0.007449774,-0.0061172126,-0.0047206404,24.300001,-5.1000004,-39.45
-0.11496094,0.3879932,9.685459,5.3970946E-4,0.0029375353,7.304955E-5,24.900002,-4.5,-38.25
-0.086220704,0.34009278,9.704619,-0.002656084,0.009861754,6.056818E-4,24.6,-3.45,-37.050003
0.0,0.23471193,9.671089,0.0026702383,-7.908903E-4,6.056818E-4,24.750002,-3.9,-38.550003
0.07664063,0.2682422,9.78605,-0.0031887162,-0.006649845,0.005932004,24.6,-5.1000004,-38.25
0.119750984,0.40715334,9.73815,-0.0021234518,-0.0013235225,-0.0020574795,26.550001,-4.2000003,-38.850002
-0.05269043,0.40715334,9.77168,-0.0010581872,-0.0029214192,-0.0015248471,24.900002,-5.1000004,-38.25
-0.086220704,0.40715334,9.72857,0.004268135,0.004535432,-0.0015248471,24.0,-4.5,-39.45
-0.06706055,0.38320315,9.72857,-0.0031887162,2.7437415E-4,0.003801475,24.750002,-5.25,-38.550003
0.019160157,0.34488282,9.73815,0.0032028705,0.002404903,-0.0015248471,24.0,-4.8,-37.5
-0.019160157,0.32093263,9.704619,0.0026702383,0.0013396386,7.304955E-5,24.45,-3.6000001,-40.050003
0.014370117,0.35925296,9.733359,0.0053333994,-2.5825808E-4,-0.0015248471,24.750002,-4.2000003,-37.65
-0.047900394,0.3784131,9.699829,0.0032028705,0.0040027997,-0.006318537,25.650002,-4.5,-37.95
-0.009580079,0.31135255,9.68067,-0.0026425386,0.0061478075,6.04005E-4,25.2,-4.65,-38.850002
-0.0047900393,0.34967285,9.69504,0.006412209,-0.004504837,7.13728E-5,24.6,-5.1000004,-38.25
0.028740235,0.4023633,9.72378,-0.0021099064,0.0061478075,-4.6125942E-4,23.85,-3.9,-40.050003
-0.014370117,0.39278322,9.81,0.006412209,0.0018867496,7.13728E-5,24.300001,-4.5,-38.7
-0.038320314,0.32572266,9.685459,-5.120098E-4,-0.001841676,-0.002059156,25.35,-5.8500004,-39.9
-0.081430666,0.4023633,9.623189,-0.004773068,0.0024193819,0.004865063,25.2,-4.65,-38.850002
-0.014370117,0.3161426,9.69504,0.0021511514,8.214851E-4,0.0011366373,24.45,-4.2000003,-37.350002
0.0047900393,0.40715334,9.70941,-0.0031751709,-7.7641156E-4,0.0011366373,24.750002,-4.2000003,-38.550003
0.038320314,0.36883304,9.690249,0.0026837836,-7.7641156E-4,7.13728E-5,24.300001,-4.05,-39.15
-0.028740235,0.38320315,9.699829,-0.007968861,0.0018867496,-9.938916E-4,23.550001,-3.7500002,-39.9
0.0047900393,0.3065625,9.704619,0.0016185191,-0.006102734,7.13728E-5,24.900002,-4.5,-40.350002
-0.023950197,0.32572266,9.70941,-5.120098E-4,0.0040172786,-4.6125942E-4,25.2,-4.2000003,-39.300003
-0.019160157,0.34488282,9.685459,-0.0026425386,-0.003972205,0.0032671662,24.150002,-4.65,-38.850002
-0.009580079,0.37362307,9.7142,-0.004773068,-0.0013090437,0.0037997984,24.6,-4.05,-37.5
-0.023950197,0.37362307,9.72857,-0.0021099064,2.888529E-4,6.04005E-4,24.900002,-5.4,-37.95
-0.043110352,0.41194338,9.74294,-0.0069035967,-0.007167998,0.0011366373,25.500002,-4.9500003,-38.550003
-0.0047900393,0.42152345,9.7621,-0.0031751709,-0.0013090437,-0.0025917883,24.300001,-3.15,-38.25
0.05748047,0.32572266,9.7142,0.003749048,8.214851E-4,6.04005E-4,24.45,-5.25,-38.100002
-0.023950197,0.41194338,9.75252,0.0021511514,0.0040172786,-0.0073854784,24.45,-4.65,-39.75
0.07185059,0.4023633,9.690249,-0.0053057,-0.004504837,6.04005E-4,23.550001,-4.8,-39.45
-0.0047900393,0.4023633,9.733359,0.0016185191,-0.0013090437,-0.0036570528,24.6,-4.5,-37.95
-0.05269043,0.4167334,9.671089,0.0048143123,-7.7641156E-4,0.002734534,24.0,-4.05,-39.45
-0.06227051,0.39278322,9.718989,2.0622427E-5,-0.004504837,0.0022019017,24.900002,-4.8,-38.7
-0.014370117,0.28740236,9.632769,0.0010899504,-2.3943564E-4,0.0011361343,24.750002,-4.65,-37.65
0.06227051,0.34967285,9.699829,0.006948905,0.00348899,7.086977E-5,23.25,-5.8500004,-39.15
0.014370117,0.4167334,9.589659,0.0074815373,-0.0023699645,7.086977E-5,24.6,-3.7500002,-38.25
0.033530276,0.39278322,9.73815,-0.0010405785,0.00348899,0.0016687665,25.650002,-4.5,-38.25
0.043110352,0.30177248,9.64714,-5.0794624E-4,0.0029563578,-9.943946E-4,24.300001,-5.1000004,-39.45
-0.028740235,0.38320315,9.7142,0.0074815373,0.0013584611,-9.943946E-4,26.1,-4.65,-37.65
-0.014370117,0.37362307,9.64714,-0.0015732107,-7.7206787E-4,6.03502E-4,24.750002,-4.65,-39.300003
0.009580079,0.39757326,9.70941,-0.0015732107,-7.7206787E-4,7.086977E-5,25.2,-4.9500003,-37.65
-0.05748047,0.2778223,9.7142,0.0026878472,-0.0013047,7.086977E-5,24.750002,-3.3000002,-37.350002
0.043110352,0.364043,9.685459,-0.002638475,-0.005565758,-0.0031249237,25.500002,-6.3,-37.65
0.019160157,0.39278322,9.72378,0.002155215,2.931966E-4,-0.006853349,25.35,-4.8,-37.95
-0.028740235,0.34967285,9.671089,5.573182E-4,-2.3943564E-4,0.008592986,24.750002,-3.9,-38.100002
-0.009580079,0.32572266,9.690249,0.0032204795,-7.7206787E-4,0.0027340308,24.750002,-4.9500003,-37.65
-0.009580079,0.37362307,9.666299,-0.0010405785,0.005619519,-4.6176245E-4,24.900002,-5.1000004,-38.7
-0.019160157,0.36883304,9.718989,0.0010899504,-0.003435229,-0.0015270269,24.300001,-5.1000004,-38.25
-0.019160157,0.3879932,9.718989,-0.0010405785,2.931966E-4,7.086977E-5,23.550001,-5.1000004,-39.45
0.047900394,0.364043,9.73815,0.006416273,0.0040216222,7.086977E-5,24.750002,-3.6000001,-38.850002
0.06227051,0.39278322,9.68067,-5.0794624E-4,0.0024237256,-0.0020596592,23.550001,-3.7500002,-39.45
0.019160157,0.3305127,9.7812605,-0.0015732107,0.0013584611,0.0037992953,24.900002,-4.5,-38.25
-0.0047900393,0.3784131,9.699829,-0.0042363717,2.931966E-4,-4.6176245E-4,24.6,-4.8,-38.25
-0.009580079,0.44547364,9.690249,-5.0794624E-4,-0.0023699645,-0.003657556,24.900002,-5.1000004,-38.7
-0.019160157,0.35925296,9.685459,-0.002638475,-0.003435229,0.0011361343,24.6,-4.8,-39.15
0.033530276,0.3544629,9.651929,0.0037531117,2.931966E-4,0.0027340308,23.550001,-4.05,-39.15
-0.014370117,0.32572266,9.78605,-0.0021058428,0.0013584611,6.03502E-4,23.400002,-4.65,-39.75
-0.038320314,0.34488282,9.685459,-0.0063621597,-0.004495426,-4.6234933E-4,25.2,-4.9500003,-38.100002
0.023950197,0.30177248,9.68067,-0.0036989988,0.0018961609,6.029151E-4,24.300001,-4.05,-38.7
0.0,0.35925296,9.77168,0.0021599557,0.0018961609,0.0043313405,24.750002,-3.9,-40.050003
-0.0047900393,0.39278322,9.73815,-5.032054E-4,-0.0050280583,-0.0036581426,25.2,-2.8500001,-39.75
-0.028740235,0.42152345,9.74773,-0.0031663666,-0.0034301614,0.0069945017,24.300001,-4.8,-37.95
-0.033530276,0.364043,9.73815,-0.0015684699,0.002428793,-0.0031255104,24.45,-4.65,-37.65
0.07664063,0.34967285,9.69504,-0.0026337344,2.9826415E-4,6.029151E-4,24.6,-5.1000004,-38.25
0.06227051,0.364043,9.7142,0.0053557493,-7.670003E-4,-0.006321304,25.2,-4.65,-39.75
0.0,0.39757326,9.651929,-5.032054E-4,-0.0018322647,0.0022008119,24.45,-4.65,-38.100002
0.019160157,0.31135255,9.74294,5.6205905E-4,-7.670003E-4,0.002733444,24.150002,-3.6000001,-38.550003
-0.028740235,0.4023633,9.685459,0.002692588,0.0018961609,-0.0025928782,24.45,-4.9500003,-38.100002
-0.023950197,0.33530274,9.699829,-0.0021011021,-0.0055606905,6.029151E-4,26.550001,-5.25,-38.550003
-0.009580079,0.36883304,9.72378,5.6205905E-4,-0.002364897,6.029151E-4,24.750002,-5.25,-38.550003
-0.023950197,0.36883304,9.74773,0.0010946912,-0.0018322647,-0.0025928782,24.300001,-4.5,-38.25
0.009580079,0.3784131,9.718989,-0.0031663666,0.005091954,-0.0031255104,24.300001,-5.4,-39.15
-0.023950197,0.3879932,9.72378,0.004290485,-0.003962794,-0.0052560396,24.6,-5.1000004,-37.5
0.009580079,0.39757326,9.704619,-0.007960056,0.0040266896,-4.6234933E-4,25.500002,-4.65,-37.65
0.014370117,0.34009278,9.637559,5.6205905E-4,-0.0018322647,0.0011355474,24.300001,-3.45,-38.7
-0.014370117,0.34488282,9.72857,-0.0036989988,-0.0055606905,0.0011355474,24.0,-5.1000004,-37.95
-0.019160157,0.34967285,9.685459,0.0058883815,-0.0012996325,-0.0015276137,25.2,-5.25,-36.9
-0.023950197,0.43110353,9.690249,-0.0052968953,-0.003962794,-0.0036581426,25.2,-3.6000001,-38.100002
0.019160157,0.4167334,9.6758795,-0.0026337344,-0.0050280583,-4.6234933E-4,24.6,-3.7500002,-40.350002
0.009580079,0.364043,9.7142,-0.0052968953,-0.0050280583,0.0037987086,23.85,-4.9500003,-38.850002
-0.009580079,0.3305127,9.623189,0.0053604897,-2.2930052E-4,6.023283E-4,24.750002,-3.9,-38.850002
0.019160157,0.31135255,9.69504,5.6679983E-4,0.0013685962,-4.6293618E-4,23.550001,-4.05,-38.25
-0.043110352,0.3161426,9.7142,-0.0020963612,-2.2930052E-4,-0.0031260974,25.2,-4.65,-39.75
0.019160157,0.33530274,9.718989,5.6679983E-4,8.3596393E-4,-0.0036587296,24.750002,-3.3000002,-39.300003
0.014370117,0.41194338,9.666299,0.006425754,-0.0028924616,0.0011349604,24.150002,-4.9500003,-40.5
0.023950197,0.364043,9.72857,0.0053604897,0.0019012284,0.0053960183,23.400002,-3.9,-39.300003
-0.028740235,0.39757326,9.70941,-0.0068900515,0.0024338607,0.004863386,24.6,-4.5,-38.25
-0.014370117,0.364043,9.704619,-0.0020963612,0.0013685962,0.0016675927,25.2,-4.9500003,-38.100002
-0.05748047,0.41194338,9.72857,-0.0042268904,3.033317E-4,-9.955685E-4,24.750002,-4.65,-40.5
0.06227051,0.28740236,9.699829,0.003229961,-0.0055556227,6.969604E-5,24.0,-5.1000004,-37.5
0.028740235,0.4167334,9.666299,0.0021646966,0.0024338607,0.0037981216,25.2,-4.9500003,-38.100002
0.05269043,0.36883304,9.690249,-0.0042268904,-0.0018271971,-0.0052566263,24.900002,-5.8500004,-40.65
-0.033530276,0.32093263,9.685459,3.4167624E-5,-0.0018271971,0.002200225,24.45,-4.2000003,-39.75
-0.0047900393,0.3784131,9.72378,0.009088916,0.002966493,-4.6293618E-4,23.400002,-4.9500003,-40.5
0.033530276,0.38320315,9.75731,0.003229961,0.0019012284,-9.955685E-4,23.25,-4.8,-38.7
0.043110352,0.39757326,9.7812605,0.0026973288,0.0024338607,-9.955685E-4,23.1,-4.65,-38.100002
-0.038320314,0.35925296,9.73815,-0.0010310968,-0.0044903583,0.0027328571,24.750002,-4.65,-39.75
-0.023950197,0.3065625,9.718989,0.0016320643,8.3596393E-4,-0.0036587296,23.25,-4.8,-39.9
0.038320314,0.3544629,9.704619,-0.003694258,0.0088254465,0.0037981216,22.650002,-5.1000004,-39.9
0.047900394,0.4167334,9.623189,-4.984646E-4,0.005097022,0.002200225,22.800001,-3.3000002,-39.75
0.038320314,0.37362307,9.79563,-0.003694258,0.002966493,0.0059286505,21.900002,-4.05,-38.25
0.043110352,0.36883304,9.6758795,3.4167624E-5,-7.6193275E-4,-0.0052566263,23.25,-4.5,-40.65
-0.033530276,0.364043,9.72378,0.010154179,0.0045643896,6.969604E-5,23.550001,-3.15,-39.9
-0.05748047,0.36883304,9.75731,0.0011116228,0.0045774207,0.007525038,23.25,-4.05,-38.7
-0.047900394,0.36883304,9.72378,0.0053726807,-0.006075224,-0.0052581355,22.050001,-3.9,-39.300003
0.043110352,0.39278322,9.7142,-0.0036820674,-0.004477327,0.0064597735,22.800001,-5.25,-38.850002
0.019160157,0.364043,9.704619,0.008568474,0.0040447884,0.002198716,23.1,-3.6000001,-38.850002
-0.0047900393,0.39757326,9.733359,0.017090589,0.0061753173,0.002198716,24.150002,-3.3000002,-39.75
-0.043110352,0.34488282,9.718989,-0.0036820674,0.0019142593,-0.004192871,22.5,-3.3000002,-39.300003
-0.023950197,0.3065625,9.69504,-4.8627393E-4,0.0061753173,0.0037966126,22.5,-4.65,-39.75
0.0047900393,0.46942386,9.623189,-0.0031494352,-0.0012815341,-0.0057907677,23.550001,-4.8,-38.25
-0.009580079,0.4167334,9.666299,0.0037747838,3.1636265E-4,-0.007921296,24.150002,-2.8500001,-39.300003
0.014370117,0.364043,9.685459,0.001644255,0.00937111,0.0011334515,25.2,-3.9,-38.550003
-0.019160157,0.33530274,9.75252,-0.0036820674,3.1636265E-4,0.0032639804,24.150002,-4.2000003,-38.850002
0.033530276,0.34009278,9.74773,-0.005812596,-0.0055425917,0.0011334515,25.650002,-4.5,-37.95
-0.009580079,0.3161426,9.7142,0.0021768871,0.003512156,-0.004192871,24.6,-5.4,-39.15
0.06706055,0.41194338,9.6758795,-4.8627393E-4,-7.489018E-4,-0.0057907677,24.45,-3.6000001,-38.850002
-0.014370117,0.39757326,9.72857,0.0037747838,3.1636265E-4,-0.0063234,24.45,-4.65,-38.850002
0.06227051,0.37362307,9.78605,0.0043074163,0.0040447884,-0.0015297097,24.150002,-4.65,-38.550003
-0.023950197,0.4263135,9.642349,0.0011116228,0.0019142593,-0.0025949741,24.300001,-3.7500002,-38.25
0.0,0.3544629,9.69504,0.0053726807,8.489949E-4,0.00805767,24.300001,-3.7500002,-38.25
0.038320314,0.32572266,9.74294,-0.0010189061,0.0024468915,0.0016660837,23.550001,-4.8,-38.25
-0.014370117,0.39757326,9.666299,0.0048400485,-0.0012815341,-0.0031276064,22.95,-5.1000004,-39.15
0.014370117,0.32093263,9.70941,-0.0036820674,0.001381627,0.0011334515,24.45,-6.0,-38.550003
0.014370117,0.36883304,9.6758795,5.7899056E-4,-0.0018141663,-9.970774E-4,24.45,-4.65,-38.850002
-0.023950197,0.28261232,9.656719,0.0075032096,-0.006075224,0.0032639804,24.6,-2.7,-39.9
0.033530276,0.33530274,9.70941,0.0027095194,-0.0050099595,0.0059271413,25.35,-5.8500004,-38.25
-0.019160157,0.38320315,9.68067,5.6544534E-4,0.0013671482,6.986372E-5,25.95,-4.5,-38.25
0.014370117,0.3305127,9.7142,0.0010980775,0.0066934708,6.02496E-4,24.750002,-4.65,-38.850002
0.028740235,0.25866213,9.72378,5.6544534E-4,0.002965045,-0.004191194,24.6,-4.5,-37.95
0.028740235,0.39278322,9.718989,0.0026959742,-0.0071549667,-0.0025932975,24.0,-2.7,-39.45
0.05269043,0.3784131,9.75731,-0.0036956125,8.345161E-4,0.0022003925,23.85,-4.65,-38.550003
0.014370117,0.3065625,9.685459,-0.0031629803,0.0024324127,-0.0025932975,24.150002,-4.2000003,-38.550003
0.014370117,0.28261232,9.666299,0.0074896645,0.005095574,6.02496E-4,23.85,-4.2000003,-39.300003
-0.05269043,0.34009278,9.7621,0.0010980775,-0.0012960129,-0.0015280329,24.900002,-4.8,-38.7
-0.019160157,0.4263135,9.72378,-0.0010324514,-0.010883393,-0.004191194,24.750002,-4.2000003,-38.550003
0.0,0.34967285,9.718989,0.0026959742,8.345161E-4,-0.0015280329,24.150002,-4.65,-39.300003
0.033530276,0.3544629,9.7142,0.010152825,3.0188385E-4,6.986372E-5,24.45,-5.25,-38.550003
0.023950197,0.3544629,9.75731,-0.0047608768,-0.0055570705,0.0022003925,24.45,-4.65,-39.300003
0.0,0.36883304,9.72378,-0.005293509,0.0034976772,0.0011351282,24.750002,-4.2000003,-38.550003
-0.023950197,0.3879932,9.699829,0.0074896645,-0.0018286451,-4.627685E-4,23.400002,-4.9500003,-39.300003
-0.014370117,0.4023633,9.7142,-0.0010324514,0.0024324127,0.0011351282,24.45,-3.3000002,-39.75
0.009580079,0.3879932,9.74294,-0.0020977159,0.0013671482,-4.627685E-4,23.400002,-4.9500003,-37.65
-0.06706055,0.3544629,9.671089,-0.005293509,-0.0028939096,-0.0020606653,24.900002,-4.5,-37.95
0.028740235,0.39278322,9.7142,-0.0047608768,-0.0050244383,-0.0025932975,23.85,-4.2000003,-38.550003
0.014370117,0.36883304,9.718989,0.0010980775,0.0024324127,0.007526715,24.6,-5.1000004,-38.25
-0.038320314,0.3879932,9.651929,0.0074896645,0.0034976772,0.003265657,24.300001,-4.8,-39.45
-0.038320314,0.41194338,9.718989,0.0016307097,-0.0028939096,-0.0020606653,23.85,-4.9500003,-38.100002
0.023950197,0.34488282,9.699829,0.002163342,-0.0012960129,6.986372E-5,25.650002,-4.8,-37.5
-0.023950197,0.364043,9.75252,0.0032286064,8.345161E-4,0.0043309215,25.35,-4.8,-39.45
0.05269043,0.34488282,9.70941,-0.0036664903,0.0056593353,0.0021967876,24.300001,-4.5,-39.45
-0.019160157,0.38320315,9.718989,-0.0026012259,-0.0012648834,-0.001531638,24.750002,-4.65,-39.300003
0.043110352,0.3879932,9.733359,-0.003133858,3.3301325E-4,-9.990057E-4,25.35,-5.8500004,-37.5
0.043110352,0.364043,9.704619,0.001659832,-1.9961898E-4,0.0016641554,24.900002,-5.1000004,-39.15
0.019160157,0.34009278,9.72378,-0.009525444,0.0013982777,-9.990057E-4,26.1,-4.9500003,-38.850002
-0.0047900393,0.36883304,9.718989,-0.0020685936,-0.0060585737,0.0021967876,24.900002,-5.8500004,-39.15
0.081430666,0.4167334,9.699829,-0.0041991225,-0.0017975157,-9.990057E-4,25.2,-3.9,-38.850002
0.043110352,0.38320315,9.733359,0.0027250964,-7.322512E-4,0.0048599485,24.45,-4.65,-37.65
0.033530276,0.34967285,9.69504,-0.005264387,-0.0017975157,0.0016641554,24.6,-5.8500004,-40.65
0.023950197,0.3879932,9.666299,-0.0010033292,0.0013982777,0.0016641554,24.150002,-4.2000003,-38.850002
0.043110352,0.3784131,9.72857,-0.0041991225,-0.0017975157,-0.0031295347,24.0,-5.8500004,-39.15
-0.019160157,0.32572266,9.69504,-0.0068622837,-1.9961898E-4,0.0027294199,24.300001,-4.5,-37.5
0.047900394,0.38320315,9.64714,-0.004731755,-0.003928045,-0.001531638,26.1,-5.25,-39.75
0.06227051,0.32572266,9.68067,-0.005264387,-0.0028627801,0.0016641554,24.900002,-4.8,-37.5
0.033530276,0.37362307,9.77647,0.0032577286,0.0013982777,6.62587E-5,25.35,-3.7500002,-37.95
-0.0047900393,0.38320315,9.72857,-0.0036664903,-0.0033954124,5.9889094E-4,24.0,-4.05,-37.050003
0.019160157,0.35925296,9.718989,0.00592089,0.0024635422,-0.0063253283,24.150002,-4.65,-39.300003
0.028740235,0.42152345,9.72378,-0.0036664903,0.0029961744,-0.0025969024,25.500002,-3.9,-39.300003
0.043110352,0.3544629,9.64714,5.945675E-4,-0.002330148,0.0037946843,24.0,-5.1000004,-39.15
0.0047900393,0.35925296,9.685459,-0.0015359614,0.0029961744,0.0037946843,25.35,-4.5,-38.7
0.0047900393,0.45505372,9.656719,0.006453522,0.0051267035,-4.6637352E-4,24.6,-4.5,-39.15
0.014370117,0.40715334,9.685459,0.0075187865,0.0051267035,5.9889094E-4,25.35,-4.05,-37.95
-0.014370117,0.32572266,9.718989,0.0037903609,0.004594071,0.0043273163,25.35,-4.05,-39.45
0.0047900393,0.34488282,9.704619,-0.0063140746,0.005675986,0.0043253885,24.900002,-4.05,-39.15
-0.019160157,0.4263135,9.74773,-0.003118281,8.8229607E-4,-0.0020661985,24.45,-3.9,-40.050003
0.0047900393,0.3879932,9.690249,0.0022080413,-0.0012482328,-0.004196727,24.900002,-2.7,-37.95
0.019160157,0.40715334,9.69504,-0.003118281,-0.001780865,6.433043E-5,24.750002,-5.55,-38.850002
-0.023950197,0.37362307,9.704619,-0.0036509132,0.0024801928,0.0011295949,24.6,-3.7500002,-37.95
0.014370117,0.4023633,9.68067,-0.0015203845,-0.0028461295,0.0016622271,23.400002,-5.25,-38.550003
0.043110352,0.364043,9.7142,-0.004716178,-0.005509291,6.433043E-5,25.2,-4.2000003,-38.850002
-0.038320314,0.34009278,9.685459,0.0022080413,-0.0044440264,-0.001000934,26.550001,-6.3,-39.75
0.009580079,0.3784131,9.7621,-0.004716178,0.003012825,0.0016622271,24.6,-4.05,-38.25
0.009580079,0.3305127,9.6758795,-0.0015203845,-0.003911394,0.0043253885,24.300001,-5.8500004,-38.25
-0.033530276,0.35925296,9.704619,0.0011427767,-0.003911394,6.433043E-5,24.900002,-5.1000004,-39.9
0.047900394,0.2921924,9.7142,-0.0015203845,-0.003911394,6.433043E-5,25.35,-4.8,-39.15
0.023950197,0.32093263,9.72857,-0.0015203845,3.4966384E-4,0.0011295949,25.2,-4.9500003,-38.100002
0.009580079,0.39757326,9.704619,0.00433857,0.005675986,-0.001000934,24.750002,-5.25,-38.850002
-0.019160157,0.34967285,9.666299,0.004871202,8.8229607E-4,0.0021948593,24.750002,-4.9500003,-38.850002
-0.014370117,0.364043,9.64714,-0.0020530166,0.0046107215,-0.004196727,24.900002,-3.45,-37.5
0.081430666,0.39278322,9.64714,0.003805938,-0.0028461295,0.003792756,24.45,-5.55,-39.300003
-0.07185059,0.38320315,9.6615095,0.006469099,8.8229607E-4,5.9696264E-4,24.6,-5.1000004,-38.7
0.05269043,0.43589357,9.73815,-0.0015203845,-0.0028461295,-4.683018E-4,25.500002,-4.65,-39.75
-0.023950197,0.36883304,9.699829,0.00433857,-0.001780865,-0.003131463,24.150002,-5.55,-38.850002
0.05748047,0.3784131,9.718989,6.1014446E-4,3.4966384E-4,0.0011295949,24.0,-5.1000004,-37.95
0.043110352,0.34967285,9.68067,-0.0036509132,0.0051433537,-0.0036640952,24.6,-5.1000004,-37.95
0.0047900393,0.39278322,9.690249,-0.0020530166,8.8229607E-4,6.433043E-5,24.750002,-4.65,-38.100002
0.0047900393,0.3879932,9.72857,-0.003118281,0.0046107215,-0.003131463,25.2,-3.9,-38.850002
-0.009580079,0.38320315,9.7142,-0.005775347,-0.004437511,5.9620815E-4,26.1,-4.65,-37.65
0.05269043,0.3784131,9.72857,8.360759E-5,-0.0012417174,0.0011288404,24.300001,-4.8,-38.7
0.043110352,0.39757326,9.74294,0.005942562,0.0019540759,0.0037920014,24.45,-3.9,-38.550003
0.0047900393,0.45026368,9.75731,-9.816568E-4,3.561793E-4,-0.0010016885,25.500002,-3.9,-37.65
-0.023950197,0.35925296,9.6758795,0.0038120332,0.0030193403,-0.0057953787,25.650002,-4.5,-39.15
0.0,0.38320315,9.704619,0.0027467688,0.0030193403,0.0011288404,24.150002,-4.2000003,-40.050003
-0.05269043,0.3544629,9.78605,8.360759E-5,-0.0017743496,0.0037920014,25.2,-4.9500003,-38.850002
0.014370117,0.35925296,9.608819,0.0011488721,0.0030193403,0.0016614726,23.550001,-4.8,-39.9
0.033530276,0.34488282,9.656719,0.0048772977,0.0019540759,0.0021941047,24.900002,-4.5,-38.7
0.0047900393,0.4167334,9.74294,-9.816568E-4,-0.0012417174,-0.0015343208,24.750002,-5.25,-38.100002
0.0047900393,0.37362307,9.72857,-0.00417745,-0.0055027753,-0.0073932754,24.0,-4.8,-39.15
-0.019160157,0.364043,9.690249,0.0027467688,-7.0908514E-4,-0.002066953,24.900002,-4.05,-39.15
0.014370117,0.35925296,9.7142,-0.0047100824,-0.002306982,-0.0010016885,25.800001,-3.6000001,-39.300003
0.05269043,0.34009278,9.7812605,8.360759E-5,-0.0017743496,0.0037920014,23.25,-5.8500004,-36.75
0.019160157,0.3784131,9.671089,-4.4902464E-4,0.0019540759,-0.0015343208,24.750002,-3.9,-38.850002
0.0,0.364043,9.733359,0.0022141365,-7.0908514E-4,0.005389898,24.6,-4.05,-39.45
0.023950197,0.37362307,9.72378,-0.0015142891,-0.0039048786,0.0011288404,24.750002,-5.55,-39.300003
-0.028740235,0.3544629,9.70941,-0.0068406113,0.006747766,-0.002066953,25.500002,-5.25,-38.850002
0.028740235,0.45505372,9.6758795,-0.0031121857,-0.0028396142,-0.0010016885,25.2,-4.9500003,-37.65
0.05748047,0.364043,9.74294,-0.0020469213,-0.0055027753,5.9620815E-4,24.750002,-5.25,-40.5
0.043110352,0.34488282,9.690249,0.0011488721,-1.7645292E-4,0.0021941047,24.750002,-4.9500003,-40.050003
0.009580079,0.46942386,9.72857,-0.0031121857,-0.0033722464,-0.002066953,25.650002,-5.1000004,-38.25
0.05269043,0.42152345,9.72378,0.0027467688,0.0014214438,-0.004197482,24.150002,-4.9500003,-37.65
0.0,0.3305127,9.637559,-0.003644818,-7.0908514E-4,5.9620815E-4,24.300001,-4.5,-37.95
-0.009580079,0.42152345,9.699829,0.0022141365,-0.004970143,-0.0025995853,24.900002,-5.1000004,-37.95
-0.043110352,0.30177248,9.72857,0.0043446654,0.008345663,5.9620815E-4,25.650002,-4.05,-39.15
-0.023950197,0.38320315,9.73815,0.0027467688,0.002486708,0.0011288404,24.45,-4.9500003,-39.300003
0.0047900393,0.3879932,9.690249,-0.0015142891,0.0014214438,0.0037920014,25.500002,-4.9500003,-39.300003
-0.014370117,0.34967285,9.6758795,-9.816568E-4,0.0035519726,0.0032593692,24.750002,-5.25,-38.100002
0.043110352,0.364043,9.690249,6.1623985E-4,-0.002306982,0.0016614726,24.150002,-5.55,-38.100002
0.028740235,0.35925296,9.64714,-4.4902464E-4,0.002486708,6.357589E-5,25.2,-5.55,-39.300003
-0.019160157,0.32572266,9.7142,0.0048772977,-0.002306982,-4.6905634E-4,26.1,-5.25,-38.100002
0.033530276,0.4263135,9.74294,0.0022141365,-0.0033722464,0.0016614726,25.2,-4.65,-38.850002
0.0,0.34488282,9.70941,-9.816568E-4,-0.0039048786,0.004857266,24.300001,-4.8,-37.5
0.0,0.42152345,9.6758795,0.007540459,0.0014214438,-0.0015343208,24.900002,-4.5,-39.45
0.023950197,0.39278322,9.70941,0.0011488721,-0.0017743496,0.0064551625,25.500002,-4.65,-38.100002
0.009580079,0.38320315,9.623189,6.1623985E-4,0.004617237,0.0043246336,24.750002,-4.9500003,-38.850002
-0.033530276,0.3065625,9.7142,8.360759E-5,-0.0033722464,6.357589E-5,24.150002,-4.65,-38.100002
0.019160157,0.34009278,9.73815,0.003279401,0.004084605,0.0059225303,24.900002,-5.8500004,-37.95
0.019160157,0.33530274,9.73815,8.360759E-5,-1.7645292E-4,-0.0015343208,24.900002,-4.5,-38.7
0.038320314,0.35925296,9.77647,-0.0025795535,-0.0071006715,-4.6905634E-4,25.2,-4.2000003,-38.550003
0.10538086,0.25866213,9.74773,-0.005775347,3.561793E-4,0.008585691,24.45,-5.55,-38.100002
-0.06706055,0.34967285,9.68067,-0.003644818,3.561793E-4,0.002726737,24.45,-4.9500003,-40.050003
-0.0047900393,0.3544629,9.642349,0.0027467688,0.0030193403,0.0011288404,24.900002,-4.5,-37.95
0.0047900393,0.3544629,9.7621,-0.0025795535,0.0035519726,0.007520427,24.6,-5.8500004,-38.25
0.014370117,0.33530274,9.671089,-0.0020469213,8.8881154E-4,-0.002066953,25.650002,-4.8,-37.5
0.07185059,0.37362307,9.77647,-0.0030878044,-0.0033461845,-0.003667868,24.900002,-3.45,-38.7
-0.014370117,0.36883304,9.6615095,-0.007881494,0.0051759314,-0.001537339,24.6,-4.5,-38.7
0.023950197,0.35925296,9.733359,-0.004153069,-0.0044114487,0.0016584544,24.750002,-4.65,-37.65
-0.05269043,0.37362307,9.74294,1.0798895E-4,-0.0012156556,0.0021910865,24.6,-4.05,-37.5
-0.009580079,0.39757326,9.70941,0.007032208,0.0030454022,6.055773E-5,25.2,-4.2000003,-38.850002
-0.014370117,0.39757326,9.75252,-0.00565722,-1.7754594E-4,4.3187593E-4,25.35,-5.8500004,-38.25
-0.043110352,0.3305127,9.671089,-0.0045919553,-0.0065691327,-6.333885E-4,24.300001,-3.7500002,-38.25
0.009580079,0.29698244,9.75252,-3.308977E-4,-0.0017754426,0.00629083,24.150002,-5.55,-38.100002
-0.019160157,0.39278322,9.637559,0.0017996312,0.0014203507,0.003095037,24.45,-5.25,-38.100002
0.0047900393,0.36883304,9.68067,2.0173453E-4,-0.004971236,9.6450816E-4,24.45,-4.2000003,-37.65
0.043110352,0.3544629,9.733359,-0.002994059,-0.002840707,0.0025624048,25.35,-5.8500004,-38.7
0.009580079,0.2921924,9.685459,7.3436677E-4,-0.0017754426,-0.0011660208,25.35,-4.8,-38.7
-0.028740235,0.3879932,9.6615095,-0.0024614267,0.0051487763,-0.005959711,23.1,-3.9,-38.550003
0.038320314,0.42152345,9.72857,0.0039301603,0.009409834,-1.0075631E-4,24.150002,-4.65,-39.300003
-0.014370117,0.364043,9.69504,-0.0024614267,8.877185E-4,-0.0064923433,24.300001,-5.1000004,-39.15
0.033530276,0.32572266,9.718989,-3.308977E-4,0.001952983,-6.333885E-4,24.45,-4.2000003,-39.75
-0.009580079,0.36883304,9.70941,0.0039301603,0.0024856152,-0.0011660208,23.85,-3.9,-38.850002
-0.019160157,0.34488282,9.72857,-0.0051245876,0.0035508797,0.00629083,24.300001,-4.05,-39.45
-0.009580079,0.34488282,9.651929,-0.0024614267,8.877185E-4,-0.0022312852,24.6,-4.5,-39.15
-0.043110352,0.43589357,9.6615095,-0.0024614267,0.0024856152,-0.0011660208,24.900002,-5.1000004,-38.7
0.009580079,0.3879932,9.7621,-0.004059323,8.877185E-4,-0.003829182,24.45,-4.65,-38.550003
-0.009580079,0.43110353,9.68067,-0.0019287944,0.0014203507,-1.0075631E-4,25.800001,-3.6000001,-38.550003
-0.009580079,0.43110353,9.704619,-0.00565722,0.0014203507,-1.0075631E-4,24.750002,-4.65,-37.65
-0.06227051,0.34009278,9.73815,7.3436677E-4,-0.005503868,-0.0043618144,25.500002,-4.2000003,-40.050003
0.038320314,0.28740236,9.6615095,0.005601049,-0.0064977515,4.185923E-4,24.6,-5.1000004,-38.7
0.033530276,0.364043,9.656719,-7.905378E-4,-0.0038345903,0.00467965,24.900002,-5.1000004,-37.050003
-0.038320314,0.34488282,9.7142,0.0029378878,9.5909974E-4,0.004147018,24.45,-4.65,-38.850002
0.019160157,0.3544629,9.718989,2.7472663E-4,-0.0022366936,0.0025491212,23.550001,-4.5,-39.15
0.009580079,0.32572266,9.68067,-7.905378E-4,0.001491732,0.0057449145,23.85,-5.25,-38.850002
-0.014370117,0.35925296,9.72378,-0.0023884345,-0.0011714292,-0.0011793043,24.900002,-5.4,-38.7
-0.014370117,0.4023633,9.70941,0.0093294745,0.0073506865,-6.4667215E-4,24.0,-4.05,-39.15
0.014370117,0.32572266,9.70941,-0.0045189634,-0.0038345903,0.0014838568,24.45,-4.2000003,-38.550003
0.0,0.40715334,9.74773,0.0018726233,-0.0022366936,0.0057449145,25.650002,-4.8,-38.7
-0.043110352,0.27303225,9.79084,-0.0018558023,0.0073506865,-0.0017119366,24.45,-4.9500003,-39.300003
-0.0047900393,0.35925296,9.718989,0.005601049,0.0025569964,-0.0033098334,25.650002,-5.4,-38.7
-0.028740235,0.3544629,9.77168,-2.579056E-4,-0.0017040614,4.185923E-4,24.300001,-3.7500002,-37.050003
0.028740235,0.37362307,9.733359,0.0024052556,0.0030896286,9.5122453E-4,25.650002,-3.7500002,-38.7
0.009580079,0.31135255,9.69504,-0.003453699,-0.005432487,-0.0027772011,24.900002,-4.5,-39.15
-0.019160157,0.39757326,9.74294,2.7472663E-4,-6.3879695E-4,-0.0038424656,25.35,-3.7500002,-38.7
0.043110352,0.33530274,9.72378,-7.905378E-4,-6.3879695E-4,-0.0033098334,23.1,-3.9,-38.850002
0.028740235,0.39757326,9.77647,-0.0018558023,0.0030896286,-1.1403991E-4,24.6,-5.1000004,-39.15
0.086220704,0.43110353,9.718989,0.00347052,-0.0038345903,0.0052122823,24.0,-4.05,-38.7
-0.019160157,0.34488282,9.74294,8.073589E-4,-1.0616472E-4,-6.4667215E-4,25.800001,-4.9500003,-39.75
0.05269043,0.364043,9.77647,0.0013399911,-0.0011714292,-0.004375098,25.800001,-4.2000003,-38.100002
0.10538086,0.34488282,9.68067,0.0066663134,-0.0043672225,9.5122453E-4,24.300001,-4.8,-38.25
0.014370117,0.4263135,9.699829,2.7472663E-4,-0.0027693259,-0.0011793043,24.750002,-4.2000003,-38.850002
0.0047900393,0.3784131,9.7142,-7.905378E-4,-0.004899855,0.0030817534,24.900002,-4.5,-39.45
-0.028740235,0.4263135,9.73815,-2.579056E-4,-0.005965119,9.5122453E-4,24.300001,-5.1000004,-39.45
0.038320314,0.3544629,9.75252,-0.0050515956,-6.3879695E-4,0.004147018,24.150002,-5.25,-38.850002
0.0,0.3544629,9.73815,-0.003453699,0.0020243642,-0.004375098,24.150002,-3.3000002,-39.300003
0.019160157,0.41194338,9.68067,0.0029378878,-0.0011714292,9.5122453E-4,24.0,-5.8500004,-37.95
-0.05269043,0.32093263,9.69504,-0.0029210667,-6.3879695E-4,-0.0038424656,26.400002,-4.5,-38.7
0.07185059,0.31135255,9.74294,2.7472663E-4,-0.0017040614,-6.4667215E-4,24.45,-4.2000003,-38.100002
-0.033530276,0.35925296,9.699829,0.0018726233,0.004154893,-0.0027772011,24.45,-3.6000001,-39.300003
-0.028740235,0.2921924,9.74294,0.0013399911,0.006285422,-1.1403991E-4,24.45,-4.65,-38.550003
0.014370117,0.3879932,9.72857,0.0018726233,-0.005432487,0.0057449145,24.300001,-4.05,-40.350002
-0.014370117,0.38320315,9.699829,-0.0018558023,-0.0043672225,0.002016489,25.2,-4.65,-38.850002
-0.038320314,0.4263135,9.666299,-0.0018558023,-1.0616472E-4,4.185923E-4,24.0,-4.8,-38.25
-0.038320314,0.44547364,9.733359,8.073589E-4,-1.0616472E-4,-6.4667215E-4,24.750002,-3.9,-38.550003
-0.038320314,0.44547364,9.72378,0.0040031523,9.5909974E-4,-0.0038424656,24.150002,-4.2000003,-38.850002
0.05269043,0.32572266,9.651929,-0.003986331,0.0025569964,-0.0017119366,24.750002,-6.0,-38.550003
0.019160157,0.4167334,9.627979,2.7472663E-4,-0.003301958,-6.4667215E-4,24.45,-5.25,-39.300003
0.1101709,0.4023633,9.685459,0.0024052556,-0.0011714292,0.0030817534,24.750002,-3.9,-38.100002
-0.033530276,0.39757326,9.656719,0.0029378878,0.0046875253,0.0025491212,24.6,-4.8,-37.95
-0.019160157,0.39278322,9.637559,8.073589E-4,0.0020243642,-0.0027772011,24.45,-4.9500003,-38.100002
-0.019160157,0.35925296,9.70941,-0.0023884345,9.5909974E-4,0.0036143856,25.35,-5.4,-39.9
0.0,0.36883304,9.72378,0.0045357845,-0.0022366936,0.0014838568,23.550001,-4.8,-37.5
0.05748047,0.3784131,9.75252,-7.905378E-4,-6.3879695E-4,-0.0038424656,24.750002,-4.9500003,-38.100002
0.05748047,0.40715334,9.690249,-0.0023884345,0.0052201576,0.002016489,25.500002,-3.3000002,-38.100002
-0.019160157,0.34488282,9.613608,0.0066663134,0.0030896286,9.5122453E-4,24.900002,-6.15,-39.15
0.038320314,0.38320315,9.73815,0.0066663134,-0.004899855,0.00467965,25.35,-4.8,-37.95
-0.038320314,0.38320315,9.72378,0.0013483034,0.0014998608,-0.0022460816,25.500002,-4.2000003,-38.100002
-0.028740235,0.33530274,9.623189,0.0029462,-9.8035904E-5,0.0030802407,25.800001,-3.9,-38.550003
0.019160157,0.3879932,9.766891,-2.4959334E-4,-0.004891726,0.0025476085,24.6,-5.4,-38.7
0.009580079,0.40715334,9.80521,-0.0013148577,-0.0022285648,-0.0022460816,24.45,-4.2000003,-38.550003
-0.033530276,0.29698244,9.72857,0.0029462,-0.004891726,-6.4818485E-4,25.650002,-4.8,-39.15
0.07664063,0.39278322,9.77168,-7.822256E-4,0.002032493,-0.0075724036,24.300001,-4.8,-38.7
-0.033530276,0.34967285,9.78605,0.0045440965,-9.8035904E-5,0.003612873,24.750002,-3.3000002,-39.300003
-0.009580079,0.34009278,9.685459,-0.00184749,-0.0038264615,-0.0043766103,25.35,-5.8500004,-38.7
-0.038320314,0.364043,9.73815,0.008272522,0.0030977575,-0.0011808171,24.150002,-4.2000003,-38.550003
0.023950197,0.32093263,9.718989,2.8303888E-4,0.0057609184,-6.4818485E-4,24.150002,-3.9,-40.050003
-0.033530276,0.32572266,9.6615095,-2.4959334E-4,0.0052282866,0.0020149762,26.400002,-5.8500004,-39.15
-0.014370117,0.3544629,9.7142,-0.00184749,4.3459632E-4,0.0030802407,25.500002,-3.6000001,-38.850002
0.07185059,0.40715334,9.627979,-0.0013148577,0.006826183,-0.0017134494,25.650002,-5.4,-37.050003
0.043110352,0.3544629,9.699829,0.0018809356,4.3459632E-4,-6.4818485E-4,25.95,-4.05,-39.45
0.05748047,0.33530274,9.73815,-0.0013148577,0.004163022,0.0025476085,24.150002,-3.6000001,-39.300003
-0.019160157,0.34488282,9.72857,0.0050767288,-9.8035904E-5,-0.0011808171,23.85,-4.2000003,-38.850002
0.07185059,0.32093263,9.642349,-0.0029127544,-0.0022285648,0.0046781376,23.550001,-3.7500002,-39.15
0.023950197,0.34488282,9.651929,0.0066746254,-0.0011633004,-0.003311346,24.750002,-3.9,-38.100002
-0.009580079,0.42152345,9.671089,-7.822256E-4,-9.8035904E-5,-0.005974507,23.85,-4.9500003,-39.75
-0.05269043,0.3065625,9.74773,-0.0034453867,-0.0016959326,0.0041455054,24.6,-3.7500002,-38.25
0.009580079,0.37362307,9.72857,0.0029462,0.002032493,-0.003311346,24.45,-5.25,-38.100002
0.05748047,0.34488282,9.68067,2.8303888E-4,0.0014998608,-0.0022460816,25.500002,-5.25,-38.850002
0.014370117,0.36883304,9.72378,0.0029462,0.006293551,0.0020149762,24.6,-3.7500002,-37.050003
0.047900394,0.32093263,9.69504,-0.002369543,0.008434425,-0.0011827424,24.0,-4.8,-38.7
0.0,0.364043,9.733359,0.007217837,-0.002218219,0.00414358,25.2,-4.65,-39.75
0.009580079,0.33530274,9.699829,-0.0060979687,-6.203224E-4,-0.0038459036,24.150002,-3.9,-37.65
0.023950197,0.4023633,9.651929,-7.7164633E-4,-6.203224E-4,-0.0011827424,24.900002,-4.5,-39.15
0.038320314,0.30177248,9.74294,-0.007163233,-0.0075445413,-6.5011013E-4,24.45,-4.65,-38.550003
-0.019160157,0.43110353,9.72857,0.005087308,0.0020428388,0.0025456832,24.900002,-5.1000004,-39.15
0.038320314,0.3784131,9.704619,-0.0029021753,-6.203224E-4,-0.002780639,23.25,-5.1000004,-38.25
0.028740235,0.34967285,9.69504,-0.0018369108,-0.0070119086,-0.0022480069,24.750002,-5.25,-39.75
0.0047900393,0.32572266,9.718989,-0.004500072,0.005238632,-1.1747792E-4,24.0,-3.7500002,-39.45
-0.019160157,0.34009278,9.7142,0.004554676,4.4494204E-4,4.1515433E-4,25.35,-4.8,-38.25
0.0,0.3305127,9.68067,-0.0018369108,-8.769019E-5,-1.1747792E-4,25.2,-5.55,-39.300003
0.019160157,0.43589357,9.766891,-0.0029021753,-0.0011529546,-0.0017153746,24.750002,-3.9,-38.550003
0.0,0.39278322,9.68067,-0.006630601,-6.203224E-4,0.0036109476,24.45,-4.9500003,-38.100002
-0.06706055,0.43110353,9.733359,-2.390141E-4,-6.203224E-4,-1.1747792E-4,25.35,-4.5,-37.5
0.009580079,0.39278322,9.613608,-2.390141E-4,-6.203224E-4,4.1515433E-4,24.750002,-4.2000003,-40.050003
-0.038320314,0.32572266,9.690249,-0.0039674398,-0.012338232,-0.0038459036,24.900002,-3.7500002,-39.9
0.06227051,0.40715334,9.73815,-0.0039674398,-0.0070119086,0.0014804187,25.35,-5.4,-38.25
-0.033530276,0.40715334,9.74294,-0.0029021753,0.0041733677,-6.5011013E-4,25.2,-5.25,-37.65
-0.009580079,0.40715334,9.77168,-0.0055653364,0.0063038967,-0.002780639,25.500002,-4.2000003,-38.850002
0.009580079,0.38320315,9.656719,-0.0013042786,0.0020428388,0.0030783154,26.1,-2.8500001,-38.100002
-0.043110352,0.3305127,9.642349,-0.0013042786,0.0031081033,-0.0022480069,24.750002,-4.65,-38.100002
0.0,0.364043,9.69504,0.0018915148,0.002575471,-0.0022480069,25.35,-3.45,-37.95
-0.014370117,0.36883304,9.7621,0.0013588825,-0.0027508512,9.4778655E-4,24.300001,-4.5,-37.95
0.0,0.36883304,9.74294,-0.0018369108,-0.004348748,0.00414358,24.300001,-3.45,-37.5
0.014370117,0.34009278,9.651929,-7.7164633E-4,-0.00488138,0.0052088443,24.6,-5.4,-39.45
-0.014370117,0.38320315,9.704619,0.0034894114,-0.0011529546,4.1515433E-4,24.0,-4.05,-39.45
-0.009580079,0.32093263,9.690249,0.002424147,-0.002218219,0.0014804187,24.0,-4.8,-38.7
-0.06706055,0.38320315,9.733359,0.005087308,9.775743E-4,-0.0011827424,25.500002,-3.3000002,-37.65
0.023950197,0.39757326,9.75252,8.2625035E-4,0.0031081033,-0.002780639,24.750002,-3.9,-39.300003
-0.047900394,0.3879932,9.733359,-0.002369543,-8.769019E-5,-0.004911168,24.45,-4.2000003,-38.850002
-0.05269043,0.34009278,9.77168,-0.0018369108,-0.009142438,-0.0011827424,24.150002,-3.9,-38.850002
0.019160157,0.40715334,9.70941,-0.0029021753,-0.00488138,9.4778655E-4,25.2,-6.0,-38.550003
0.014370117,0.45984375,9.690249,2.9361813E-4,9.775743E-4,-0.0011827424,24.750002,-4.9500003,-39.75
0.047900394,0.36883304,9.704619,-0.004500072,-0.008609806,-0.0038459036,25.35,-4.5,-37.95
-0.0047900393,0.37362307,9.73815,0.002424147,0.007369161,-0.0022480069,24.300001,-4.8,-37.95
0.014370117,0.36883304,9.690249,2.9361813E-4,-6.203224E-4,0.002013051,24.750002,-4.2000003,-38.100002
0.047900394,0.39757326,9.7142,-0.0013042786,9.775743E-4,-1.1747792E-4,24.6,-5.1000004,-38.7
0.0,0.364043,9.68067,0.0029567792,-0.0016855869,0.00414358,24.300001,-4.05,-40.350002
-0.043110352,0.33530274,9.72857,0.0029567792,-0.0011529546,0.0014804187,24.45,-4.9500003,-36.9
0.047900394,0.3161426,9.685459,-0.0039674398,-0.0054140124,-1.1747792E-4,24.0,-4.8,-38.25
-0.05269043,0.35925296,9.77647,-0.002369543,0.0057712644,0.00414358,24.750002,-3.9,-39.300003
-0.014370117,0.36883304,9.77168,0.0056199403,-0.0011529546,4.1515433E-4,25.95,-4.8,-38.25
-0.05269043,0.37362307,9.666299,-0.0018369108,-6.203224E-4,-0.0017153746,24.45,-4.9500003,-38.850002
-0.028740235,0.2778223,9.75252,-0.0039674398,-0.0011529546,4.1515433E-4,24.300001,-4.5,-38.7
-0.019160157,0.35925296,9.666299,-7.7164633E-4,0.0015102065,0.002013051,25.2,-5.25,-36.9
0.014370117,0.364043,9.690249,0.0018915148,-0.004348748,-0.0033132713,24.45,-5.25,-37.350002
-0.0047900393,0.364043,9.704619,0.003477321,0.004161544,4.1735463E-4,24.900002,-4.5,-37.5
0.019160157,0.36883304,9.6758795,-0.0045121624,-6.3214614E-4,-0.0043763355,24.45,-4.2000003,-38.100002
0.06227051,0.3065625,9.6758795,-7.8373693E-4,0.0014983828,-0.001180542,24.6,-4.05,-39.15
0.0047900393,0.364043,9.699829,0.0018794242,-0.0011647784,0.0046784123,24.900002,-5.4,-38.25
-0.05269043,0.4263135,9.75731,-2.5110468E-4,4.3311832E-4,0.0046784123,25.2,-4.2000003,-37.350002
-0.0047900393,0.4406836,9.69504,-0.0023816335,-6.3214614E-4,0.003080516,24.900002,-4.5,-39.15
-0.038320314,0.34967285,9.72857,-0.0045121624,4.3311832E-4,0.0020152514,23.85,-4.9500003,-38.550003
0.009580079,0.41194338,9.623189,0.001346792,-0.005425836,0.003080516,25.2,-3.3000002,-38.550003
-0.023950197,0.3784131,9.718989,-0.0050447946,-9.951391E-5,0.00414578,24.6,-4.5,-38.7
0.047900394,0.38320315,9.6615095,-0.0029142657,0.002031015,-0.003843703,25.2,-3.9,-39.300003
0.05748047,0.39757326,9.671089,-7.8373693E-4,9.6575054E-4,-0.0027784386,25.2,-3.6000001,-38.850002
-0.023950197,0.36883304,9.718989,8.1415975E-4,0.004161544,-0.0022458064,25.35,-4.8,-37.5
-0.009580079,0.42152345,9.74773,2.8152755E-4,-0.005425836,-6.479098E-4,25.800001,-4.65,-36.9
0.033530276,0.34488282,9.74773,0.0024120566,-0.0022300428,0.0046784123,25.650002,-4.8,-38.25
0.038320314,0.43110353,9.718989,0.003477321,0.0014983828,-0.0017131743,25.800001,-4.9500003,-36.15
-0.0047900393,0.37362307,9.666299,0.003477321,9.6575054E-4,-1.1527759E-4,25.2,-3.3000002,-38.850002
0.05269043,0.29698244,9.666299,-0.0013163692,-0.0043605715,-0.0033110708,24.300001,-4.5,-38.7
0.023950197,0.364043,9.656719,-7.8373693E-4,-0.008621629,4.1735463E-4,24.300001,-4.05,-39.45
-0.07664063,0.41194338,9.704619,0.0029446888,-0.0016974106,9.4998686E-4,25.500002,-5.25,-38.550003
0.023950197,0.3879932,9.6615095,-0.005577427,4.3311832E-4,-6.479098E-4,24.900002,-4.5,-39.15
0.043110352,0.39278322,9.690249,-7.8373693E-4,4.3311832E-4,-6.479098E-4,24.0,-4.5,-38.25
0.0,0.40715334,9.685459,0.0050752177,0.0014983828,-0.001180542,24.6,-5.4,-38.25
0.0,0.26345217,9.608819,0.00560785,4.3311832E-4,0.0014826191,24.750002,-5.55,-38.850002
0.0,0.38320315,9.70941,2.8530587E-4,0.0025673422,0.004145093,25.800001,-4.2000003,-38.850002
0.033530276,0.39278322,9.7621,0.0034810991,-9.581895E-5,-0.004909655,25.35,-4.05,-38.7
0.0047900393,0.37362307,9.7142,8.179381E-4,-0.0038242445,-0.0011812296,24.150002,-5.55,-38.100002
-0.043110352,0.39278322,9.733359,-0.007171545,-0.0032916123,-6.4859743E-4,24.900002,-4.05,-38.7
0.06227051,0.4023633,9.70941,0.0018832026,0.0025673422,-0.0054422873,26.1,-4.2000003,-40.5
0.05748047,0.3784131,9.70941,-0.0023778554,0.0015020778,-6.4859743E-4,25.650002,-5.1000004,-37.5
-0.047900394,0.29698244,9.72378,-0.003975752,-0.004356877,-0.0022464942,24.45,-3.6000001,-38.100002
-0.033530276,0.39757326,9.74773,0.007209525,9.694455E-4,-0.0033117586,24.750002,-4.9500003,-38.850002
-0.086220704,0.34967285,9.656719,0.0013505704,-0.004356877,-0.0011812296,24.300001,-4.05,-37.95
-0.023950197,0.39757326,9.699829,-0.003975752,0.0015020778,0.0052103573,24.150002,-4.65,-39.300003
0.043110352,0.32572266,9.642349,0.0013505704,-0.0011610833,-0.004909655,24.750002,-5.25,-38.100002
-0.05269043,0.37362307,9.74773,0.0056116283,0.0036326067,0.004677725,25.650002,-4.8,-37.95
-0.009580079,0.37362307,9.685459,0.004546364,0.0015020778,9.4929925E-4,24.300001,-4.8,-38.7
0.081430666,0.35925296,9.685459,-0.001845223,9.694455E-4,0.0020145637,24.300001,-4.8,-39.15
0.10538086,0.30177248,9.7142,0.009872686,0.0025673422,-0.0011812296,24.900002,-5.4,-39.45
0.047900394,0.42152345,9.75252,0.004546364,0.007893665,-0.0027791264,24.6,-4.8,-39.45
0.043110352,0.34967285,9.68067,-0.0013125908,0.0030999745,0.0036124603,24.0,-5.1000004,-37.050003
0.05748047,0.31135255,9.74773,-0.0013125908,9.694455E-4,-0.0027791264,24.45,-4.2000003,-38.850002
-0.038320314,0.43589357,9.733359,0.0018832026,-0.0016937156,-0.0011812296,25.500002,-3.9,-38.550003
0.06227051,0.32572266,9.704619,0.007209525,-0.0011610833,0.0036124603,24.45,-3.9,-39.75
-0.009580079,0.31135255,9.70941,-0.004508384,-9.581895E-5,0.004145093,24.300001,-4.05,-39.45
-0.038320314,0.364043,9.70941,0.005078996,-0.00275898,-0.0038443909,24.6,-5.8500004,-38.7
0.038320314,0.36883304,9.690249,8.179381E-4,0.00203471,-6.4859743E-4,24.0,-4.5,-38.7
0.07185059,0.34488282,9.78605,-0.0039674398,-0.0054140124,-1.1747792E-4,24.6,-4.8,-38.7
0.009580079,0.31135255,9.70941,-0.005032704,-8.769019E-5,-0.0033132713,24.45,-4.2000003,-39.300003
-0.023950197,0.4406836,9.637559,0.0018915148,0.0036407355,-0.0059764325,25.800001,-5.25,-38.100002
-0.019160157,0.35925296,9.70941,-0.0029021753,-0.0032834834,0.002013051,24.900002,-4.5,-38.7
-0.05748047,0.43110353,9.69504,-2.390141E-4,-0.004348748,4.1515433E-4,25.800001,-4.9500003,-38.850002
-0.009580079,0.3879932,9.766891,0.01041363,0.0020428388,4.1515433E-4,24.750002,-6.0,-37.350002
0.019160157,0.34488282,9.6615095,-0.0018369108,-0.0038161157,-1.1747792E-4,24.45,-3.9,-38.100002
-0.023950197,0.3065625,9.704619,2.9361813E-4,-0.0038161157,-0.0059764325,25.650002,-3.7500002,-37.050003
0.019160157,0.29698244,9.70941,0.0077504693,-0.0032834834,-0.0054438002,24.45,-3.9,-38.100002
-0.009580079,0.38320315,9.699829,-0.0055653364,-0.0038161157,-6.5011013E-4,24.300001,-4.8,-39.15
-0.033530276,0.36883304,9.7621,-0.004500072,-0.0016855869,0.0052088443,24.900002,-4.05,-38.7
0.0047900393,0.34488282,9.671089,-0.0018369108,4.4494204E-4,-0.004378536,23.85,-4.65,-38.850002
0.047900394,0.3544629,9.73815,-7.7164633E-4,0.0020428388,-0.002780639,24.300001,-4.05,-38.25
-0.019160157,0.32093263,9.718989,2.9361813E-4,0.005238632,-0.0038459036,24.900002,-4.5,-38.7
-0.0047900393,0.36883304,9.690249,0.0029567792,-0.002218219,-0.002780639,24.6,-4.5,-38.25
-0.014370117,0.33530274,9.6758795,-0.0034348075,0.0020428388,0.004676212,24.150002,-4.9500003,-39.75
0.06706055,0.36883304,9.690249,0.0061525726,-8.769019E-5,4.1515433E-4,24.0,-3.7500002,-38.25
0.033530276,0.3544629,9.72378,-2.390141E-4,-0.002218219,9.4778655E-4,24.45,-4.2000003,-39.75
0.023950197,0.34488282,9.72378,-0.0013042786,-0.0027508512,-0.0011827424,24.150002,-4.9500003,-38.850002
-0.05269043,0.42152345,9.7142,-0.002369543,4.4494204E-4,0.0030783154,24.150002,-4.9500003,-38.850002
-0.0047900393,0.39757326,9.699829,-0.0039674398,-0.002218219,0.002013051,25.650002,-6.15,-39.45
-0.009580079,0.4023633,9.70941,-2.390141E-4,-0.0054140124,-0.0059764325,25.35,-4.5,-39.15
0.06227051,0.364043,9.685459,-0.0034348075,-0.004348748,-1.1747792E-4,24.900002,-3.7500002,-38.7
-0.047900394,0.3305127,9.7621,-0.0018369108,-0.0016855869,0.0036109476,25.2,-4.65,-38.100002
-0.043110352,0.38320315,9.73815,-0.005032704,0.0020428388,-0.0017153746,25.2,-3.9,-38.550003
0.028740235,0.3784131,9.73815,-0.0055653364,0.0015102065,9.4778655E-4,24.6,-3.45,-38.25
-0.019160157,0.45984375,9.74773,-7.7164633E-4,0.0015102065,-0.0011827424,24.900002,-4.5,-38.7
0.033530276,0.32093263,9.718989,0.0040220437,0.0015102065,0.0025456832,25.650002,-5.1000004,-37.95
0.033530276,0.3879932,9.72378,-0.0029021753,-0.0059466446,4.1515433E-4,25.800001,-6.0,-37.350002
0.0,0.3305127,9.6615095,8.2625035E-4,0.0020428388,-6.5011013E-4,24.750002,-4.2000003,-38.550003
0.014370117,0.45984375,9.7142,-0.0029021753,-0.004348748,4.1515433E-4,25.35,-4.8,-38.25
0.019160157,0.4167334,9.704619,0.0040220437,0.005238632,-0.0033132713,24.45,-4.65,-38.100002
-0.009580079,0.32572266,9.69504,-0.0039674398,-0.0038161157,-0.0033132713,24.0,-4.05,-36.75
-0.019160157,0.31135255,9.72857,-7.7164633E-4,-0.002218219,-0.0059764325,24.45,-4.65,-39.300003
0.17723145,0.4167334,9.613608,-0.0039674398,0.0041733677,0.009469902,25.2,-4.2000003,-37.65
0.119750984,0.34488282,9.73815,0.004554676,0.0020428388,-6.5011013E-4,24.300001,-4.05,-37.5
